File: txt/19495_R316_UA628_SOC00_C05.mpt
EC-Lab ASCII FILE
Nb header lines : 65

Potentio Electrochemical Impedance Spectroscopy

Run on channel : 5 (SN 65912)
User :
CE vs. WE compliance from -10 V to 10 V
Electrode connection : standard
Potential control : Ewe
Ewe ctrl range : min = -10.00 V, max = 10.00 V
Safety Limits :
	Do not start on E overload
Acquisition started on : 12/04/2025 13:09:55.781
Technique started on : 12/04/2025 13:09:57.375
Loaded Setting File :  C:\Users\Celltest\OneDrive - store-dot.com\Documents\EC-Lab\Data\@Biologic Test Protocols\anode half cell EIS SOC00.mps
Saved on :
	File : 19495_R316_UA628_SOC00_C05.mpr
	Directory : C:\Users\Celltest\OneDrive - store-dot.com\Documents\EC-Lab\Data\Charmaine\
	Host : 169.254.61.224
Device : VMP-3e (SN .003165)
Address : USB
EC-LAB for windows v11.62 (software)
Internet server v27.00 (firmware)
Command interpretor v12.03 (firmware)
Electrode material :
Initial state :
Electrolyte :
Comments :
Electrode surface area : 0.001 cm²
Characteristic mass : 0.001 g
Equivalent Weight : 0.000 g/eq.
Density : 0.000 g/cm3
Volume (V) : 0.001 cm³
Record Ece
Cycle Definition : Charge/Discharge alternance
Mode                Single sine
E (V)               0.0000
vs.                 Eoc
tE (h:m:s)          0:00:0.0000
record              0
dI                  0.000
unit dI             mA
dt (s)              0.000
fi                  100.000
unit fi             kHz
ff                  10.000
unit ff             mHz
Nd                  6
Points              per decade
spacing             Logarithmic
Va (mV)             5.0
pw                  0.10
Na                  2
corr                0
E range min (V)     -10.000
E range max (V)     10.000
I Range             Auto
Bandwidth           5
nc cycles           0
goto Ns'            0
nr cycles           0
inc. cycle          0

freq/Hz	Re(Z)/Ohm	-Im(Z)/Ohm	|Z|/Ohm	Phase(Z)/deg	time/s	<Ewe>/V	<I>/mA	Cs/µF	Cp/µF	cycle number	I Range	|Ewe|/V	|I|/A	Ns	(Q-Qo)/mA.h	<Ece>/V	|Ece|/V	Phase(Zce)/deg	|Zce|/Ohm	Re(Zce)/Ohm	-Im(Zce)/Ohm	Phase(Zwe-ce)/deg	|Zwe-ce|/Ohm	Re(Zwe-ce)/Ohm	-Im(Zwe-ce)/Ohm	Re(Y)/Ohm-1	Im(Y)/Ohm-1	|Y|/Ohm-1	Phase(Y)/deg	Re(C)/nF	Im(C)/nF	|C|/nF	Phase(C)/deg	Re(M)	Im(M)	|M|	Phase(M)/deg	Re(Permittivity)	Im(Permittivity)	|Permittivity|	Phase(Permittivity)/deg	Re(Resistivity)/Ohm.cm	Im(Resistivity)/Ohm.cm	|Resistivity|/Ohm.cm	Phase(Resistivity)/deg	Re(Conductivity)/mS/cm	Im(Conductivity)/mS/cm	|Conductivity|/mS/cm	Phase(Conductivity)/deg	Tan(Delta)	Loss Angle(Delta)/deg	dq/mA.h	Pwe/W	Pce/W	Pwe-ce/W	<Ewe-Ece>/V	Rwe/Ohm	Rce/Ohm	Rwe-ce/Ohm		Ewe-Ece/V
100004	1.22647	-0.0355673	1.22698	1.6611	1.59352	0.217158	0.00448445	-44.7459	-0.037599	1	9	0.000921642	0.000751144	0	-2.57969e-06	-9.38465e-06	1.8265e-05	60.6154	0.0243163	0.0119313	-0.0211879	2.624	1.2397	1.2384	-0.0567552	0.814664	-0.0236251	0.815006	-1.6611	-37.5991	1296.53	1297.07	-91.6611	0.0000000E+000	0.0000000E+000	0.0000000E+000	91.6611	0.0000000E+000	0.0000000E+000	0.0000000E+000	-91.6611	0.0000000E+000	0.0000000E+000	0.0000000E+000	1.6611	0.0000000E+000	0.0000000E+000	0.0000000E+000	-1.6611	34.483	88.3389	-2.57969e-06	9.73831e-07	-4.20849e-11	9.73873e-07	0.217167	48424.6	2.09271	48426.7
68132	1.22212	-0.276472	1.253	12.7471	1.97655	0.21716	0.008767	-8.44924	-0.411353	1	9	0.000937266	0.000748015	0	-2.81819e-06	0.000238801	1.4149e-05	66.6172	0.0189153	0.00750698	-0.0173619	13.4395	1.26425	1.22963	-0.293834	0.778412	-0.176095	0.798082	-12.7471	-411.353	1818.35	1864.3	-102.747	0.0000000E+000	0.0000000E+000	0.0000000E+000	102.747	0.0000000E+000	0.0000000E+000	0.0000000E+000	-102.747	0.0000000E+000	0.0000000E+000	0.0000000E+000	12.7471	0.0000000E+000	0.0000000E+000	0.0000000E+000	-12.7471	4.42042	77.2529	-2.38499e-07	1.90384e-06	2.09357e-09	1.90175e-06	0.216921	24770.2	27.2386	24742.9
46420.4	-0.065965	-0.188801	0.199993	109.259	2.1316	0.217161	0.0102566	-18.1596	-16.184	1	9	5.25553e-05	0.000262785	0	-2.43846e-06	9.70657e-06	5.37319e-06	-154.609	0.0204471	-0.018472	0.00876743	115.127	0.198851	-0.084437	-0.180034	-1.64923	-4.72035	5.00016	-109.259	-16184	-5654.49	17143.4	160.741	0.0000000E+000	0.0000000E+000	0.0000000E+000	-160.741	0.0000000E+000	0.0000000E+000	0.0000000E+000	160.741	0.0000000E+000	0.0000000E+000	0.0000000E+000	109.259	0.0000000E+000	0.0000000E+000	0.0000000E+000	-109.259	0.349388	19.2588	3.79732e-07	2.22733e-06	9.95563e-11	2.22723e-06	0.217151	21172.8	0.946374	21171.9
31621.1	1.3695	0.550909	1.47615	-21.9135	2.99652	0.217082	-0.00795359	9.13614	1.27251	1	9	0.00534433	0.00362045	0	0.000190939	-0.000181206	1.76774e-05	35.7582	0.00488266	0.00396223	-0.00285326	-21.7536	1.47877	1.37346	0.548056	0.628491	0.252823	0.677437	21.9135	1272.51	3163.31	3409.66	-68.0865	0.0000000E+000	0.0000000E+000	0.0000000E+000	68.0865	0.0000000E+000	0.0000000E+000	0.0000000E+000	-68.0865	0.0000000E+000	0.0000000E+000	0.0000000E+000	-21.9135	0.0000000E+000	0.0000000E+000	0.0000000E+000	21.9135	2.48589	68.0865	0.000193378	-1.72658e-06	1.44123e-09	-1.72802e-06	0.217263	27293.5	22.7829	27316.3
21544.7	1.50221	0.612973	1.62246	-22.1978	3.37956	0.217087	-0.00691088	12.0514	1.72018	1	9	0.00538961	0.00332187	0	0.000179374	-8.57495e-05	5.38249e-06	47.9212	0.00162032	0.00108586	-0.00120264	-22.144	1.62301	1.5033	0.611771	0.570667	0.232859	0.616348	22.1978	1720.18	4215.64	4553.09	-67.8022	0.0000000E+000	0.0000000E+000	0.0000000E+000	67.8022	0.0000000E+000	0.0000000E+000	0.0000000E+000	-67.8022	0.0000000E+000	0.0000000E+000	0.0000000E+000	-22.1978	0.0000000E+000	0.0000000E+000	0.0000000E+000	22.1978	2.4507	67.8022	-1.15647e-05	-1.50026e-06	5.92604e-10	-1.50086e-06	0.217173	31412.4	12.4079	31424.8
14678.6	1.64739	0.676283	1.7808	-22.3191	3.76255	0.217085	-0.00709709	16.0327	2.31225	1	9	0.0050471	0.00283418	0	0.000178782	0.000143345	1.00376e-05	-83.2764	0.00354162	0.000414651	0.00351727	-22.4186	1.78252	1.6478	0.6798	0.519477	0.213255	0.561546	22.3191	2312.25	5632.51	6088.65	-67.681	0.0000000E+000	0.0000000E+000	0.0000000E+000	67.681	0.0000000E+000	0.0000000E+000	0.0000000E+000	-67.681	0.0000000E+000	0.0000000E+000	0.0000000E+000	-22.3191	0.0000000E+000	0.0000000E+000	0.0000000E+000	22.3191	2.43594	67.681	-5.92755e-07	-1.54067e-06	-1.01733e-09	-1.53965e-06	0.216941	30587.9	20.1977	30567.7
10002.2	1.79996	0.745357	1.94818	-22.4943	4.02156	0.217081	-0.00229315	21.3481	3.12486	1	9	0.00480738	0.00246763	0	0.000178541	-2.84759e-05	8.53879e-06	-114.542	0.00346033	-0.00143728	0.00314771	-22.596	1.94806	1.79852	0.748505	0.474247	0.196384	0.5133	22.4943	3124.86	7546.19	8167.61	-67.5057	0.0000000E+000	0.0000000E+000	0.0000000E+000	67.5057	0.0000000E+000	0.0000000E+000	0.0000000E+000	-67.5057	0.0000000E+000	0.0000000E+000	0.0000000E+000	-22.4943	0.0000000E+000	0.0000000E+000	0.0000000E+000	22.4943	2.41489	67.5057	-2.41101e-07	-4.97801e-07	6.52995e-11	-4.97866e-07	0.21711	94665	12.4178	94677.4
6810.42	1.97814	0.85492	2.15498	-23.3732	4.28052	0.217088	-0.00382	27.3351	4.30214	1	9	0.00463134	0.00214913	0	0.000179415	4.7889e-05	2.53497e-05	137.024	0.0117953	-0.0086299	-0.00804077	-23.2674	2.14387	1.96951	0.846879	0.425962	0.184094	0.464041	23.3732	4302.14	9954.45	10844.3	-66.6268	0.0000000E+000	0.0000000E+000	0.0000000E+000	66.6268	0.0000000E+000	0.0000000E+000	0.0000000E+000	-66.6268	0.0000000E+000	0.0000000E+000	0.0000000E+000	-23.3732	0.0000000E+000	0.0000000E+000	0.0000000E+000	23.3732	2.31383	66.6268	8.74685e-07	-8.29276e-07	-1.82936e-10	-8.29093e-07	0.21704	56829.2	12.5364	56816.7
4646	2.15576	0.953592	2.35725	-23.8621	4.67364	0.217062	-0.0319733	35.9235	5.87885	1	9	0.00499461	0.00211883	0	0.000176017	0.000143345	8.95162e-06	44.8464	0.0042248	0.00299538	-0.00297936	-23.7664	2.35879	2.15875	0.950613	0.387962	0.171614	0.424223	23.8621	5878.85	13290.1	14532.3	-66.1379	0.0000000E+000	0.0000000E+000	0.0000000E+000	66.1379	0.0000000E+000	0.0000000E+000	0.0000000E+000	-66.1379	0.0000000E+000	0.0000000E+000	0.0000000E+000	-23.8621	0.0000000E+000	0.0000000E+000	0.0000000E+000	23.8621	2.26067	66.1379	-3.3981e-06	-6.94019e-06	-4.58322e-09	-6.9356e-06	0.216919	6788.85	4.48327	6784.37
3163.08	2.37472	1.10017	2.61719	-24.8576	5.04561	0.216868	-0.0958396	45.735	8.08167	1	9	0.00491283	0.00187714	0	0.000166291	-0.000429391	8.17988e-06	-75.5396	0.00435763	0.00108815	0.00421958	-24.9313	2.61995	2.37581	1.10439	0.346691	0.160617	0.38209	24.8576	8081.67	17444.3	19225.4	-65.1424	0.0000000E+000	0.0000000E+000	0.0000000E+000	65.1424	0.0000000E+000	0.0000000E+000	0.0000000E+000	-65.1424	0.0000000E+000	0.0000000E+000	0.0000000E+000	-24.8576	0.0000000E+000	0.0000000E+000	0.0000000E+000	24.8576	2.1585	65.1424	-9.72608e-06	-2.07845e-05	4.11527e-08	-2.08257e-05	0.217297	2262.82	4.48031	2267.3
2155.69	2.59477	1.28469	2.89539	-26.3404	5.49782	0.21698	0.000127413	57.4692	11.3141	1	9	0.0048506	0.00167529	0	0.00016494	-0.000162114	9.44125e-06	8.04675	0.0056356	0.00558012	-0.000788878	-26.2775	2.90004	2.60035	1.2839	0.309518	0.153245	0.345377	26.3404	11314.1	22851.8	25499.2	-63.6596	0.0000000E+000	0.0000000E+000	0.0000000E+000	63.6596	0.0000000E+000	0.0000000E+000	0.0000000E+000	-63.6596	0.0000000E+000	0.0000000E+000	0.0000000E+000	-26.3404	0.0000000E+000	0.0000000E+000	0.0000000E+000	26.3404	2.01976	63.6596	-1.35127e-06	2.7646e-08	-2.06555e-11	2.76667e-08	0.217142	1.70296e+06	1272.35	1.70424e+06
1468.59	2.8547	1.494	3.22201	-27.6251	5.9491	0.216985	-0.00396896	72.5388	15.5961	1	9	0.00481157	0.00149334	0	0.000164959	0.000200619	7.02278e-06	-130.116	0.00470272	-0.00303012	0.00359639	-27.7068	3.22099	2.85167	1.49759	0.274984	0.143912	0.310365	27.6251	15596.1	29800.7	33635.1	-62.3749	0.0000000E+000	0.0000000E+000	0.0000000E+000	62.3749	0.0000000E+000	0.0000000E+000	0.0000000E+000	-62.3749	0.0000000E+000	0.0000000E+000	0.0000000E+000	-27.6251	0.0000000E+000	0.0000000E+000	0.0000000E+000	27.6251	1.91078	62.3749	1.95302e-08	-8.61207e-07	-7.96249e-10	-8.60411e-07	0.216785	54670.5	50.5469	54620
1000.32	3.11043	1.77842	3.58295	-29.7592	6.64483	0.217008	-0.0237575	89.4637	22.0411	1	10	0.00489039	0.0013649	0	0.00016419	-0.000219388	8.23628e-06	-20.844	0.00603433	0.0056394	0.00214716	-29.7443	3.58891	3.11607	1.78057	0.242292	0.138533	0.279099	29.7592	22041.1	38549.6	44405.8	-60.2408	0.0000000E+000	0.0000000E+000	0.0000000E+000	60.2408	0.0000000E+000	0.0000000E+000	0.0000000E+000	-60.2408	0.0000000E+000	0.0000000E+000	0.0000000E+000	-29.7592	0.0000000E+000	0.0000000E+000	0.0000000E+000	29.7592	1.74899	60.2408	-7.69185e-07	-5.15556e-06	5.21211e-09	-5.16077e-06	0.217227	9134.29	9.23448	9143.53
681.09	3.44204	2.17424	4.07123	-32.2795	7.0946	0.217013	-0.0246734	107.475	30.6529	1	10	0.00483936	0.00118867	0	0.000161502	-8.57495e-05	7.31959e-06	-37.5684	0.00615779	0.00488082	0.00375446	-32.2875	4.07737	3.44692	2.178	0.207665	0.131177	0.245626	32.2795	30652.9	48526.5	57397.1	-57.7205	0.0000000E+000	0.0000000E+000	0.0000000E+000	57.7205	0.0000000E+000	0.0000000E+000	0.0000000E+000	-57.7205	0.0000000E+000	0.0000000E+000	0.0000000E+000	-32.2795	0.0000000E+000	0.0000000E+000	0.0000000E+000	32.2795	1.5831	57.7205	-2.68825e-06	-5.35445e-06	2.11574e-09	-5.35656e-06	0.217098	8795.39	3.47538	8798.87
463.961	3.84056	2.68487	4.68598	-34.9567	7.54633	0.217005	-0.0232362	127.766	41.9431	1	10	0.00479885	0.00102409	0	0.000158146	-2.84759e-05	6.93627e-06	-54.6629	0.00677314	0.00391749	0.00552528	-34.9846	4.69236	3.84448	2.69039	0.174901	0.12227	0.213402	34.9567	41943.1	59997.4	73204.6	-55.0433	0.0000000E+000	0.0000000E+000	0.0000000E+000	55.0433	0.0000000E+000	0.0000000E+000	0.0000000E+000	-55.0433	0.0000000E+000	0.0000000E+000	0.0000000E+000	-34.9567	0.0000000E+000	0.0000000E+000	0.0000000E+000	34.9567	1.43045	55.0433	-3.35599e-06	-5.04238e-06	6.61671e-10	-5.04304e-06	0.217034	9339.1	1.2255	9340.33
316.316	4.36363	3.34259	5.49675	-37.4525	7.99402	0.217006	-0.0244203	150.527	55.6636	1	10	0.00477367	0.000868453	0	0.000155845	0.000143345	1.12689e-05	-13.1912	0.0129758	0.0126335	0.00296111	-37.3971	5.50858	4.37627	3.34555	0.144423	0.11063	0.181926	37.4525	55663.6	72666.8	91536.3	-52.5475	0.0000000E+000	0.0000000E+000	0.0000000E+000	52.5475	0.0000000E+000	0.0000000E+000	0.0000000E+000	-52.5475	0.0000000E+000	0.0000000E+000	0.0000000E+000	-37.4525	0.0000000E+000	0.0000000E+000	0.0000000E+000	37.4525	1.30546	52.5475	-2.3007e-06	-5.29933e-06	-3.50052e-09	-5.29583e-06	0.216862	8886.29	5.86992	8880.42
215.345	5.07195	4.24034	6.61099	-39.8969	8.44451	0.217007	-0.0235639	174.295	71.7059	1	10	0.0047681	0.000721239	0	0.000152721	0.000238801	8.8451e-06	-0.00184415	0.0122638	0.0122638	3.94728e-07	-39.8289	6.6204	5.08421	4.24034	0.116049	0.0970216	0.151263	39.8969	71705.9	85768.6	111794	-50.1031	0.0000000E+000	0.0000000E+000	0.0000000E+000	50.1031	0.0000000E+000	0.0000000E+000	0.0000000E+000	-50.1031	0.0000000E+000	0.0000000E+000	0.0000000E+000	-39.8969	0.0000000E+000	0.0000000E+000	0.0000000E+000	39.8969	1.19612	50.1031	-3.1244e-06	-5.11352e-06	-5.62708e-09	-5.10789e-06	0.216768	9209.29	10.1342	9199.15
146.737	6.08494	5.32212	8.08402	-41.1742	8.89047	0.217002	-0.0253511	203.796	88.3301	1	10	0.00475805	0.000588575	0	0.000148948	4.7889e-05	5.50552e-06	-8.61293	0.00935399	0.0092485	0.00140084	-41.1385	8.09191	6.09419	5.32352	0.093111	0.0814385	0.123701	41.1742	88330.1	100990	134169	-48.8258	0.0000000E+000	0.0000000E+000	0.0000000E+000	48.8258	0.0000000E+000	0.0000000E+000	0.0000000E+000	-48.8258	0.0000000E+000	0.0000000E+000	0.0000000E+000	-41.1742	0.0000000E+000	0.0000000E+000	0.0000000E+000	41.1742	1.14333	48.8258	-3.77285e-06	-5.50125e-06	-1.21404e-09	-5.50003e-06	0.216954	8559.86	1.88903	8557.97
100.032	7.53631	6.5414	9.97927	-40.9575	9.34082	0.217005	-0.0239884	243.226	104.509	1	10	0.00474963	0.000475949	0	0.000146709	8.60714e-05	9.10208e-06	-98.8951	0.0191241	-0.00295707	0.0188941	-41.0505	9.98944	7.53335	6.5603	0.0756765	0.0656861	0.100208	40.9575	104509	120404	159434	-49.0425	0.0000000E+000	0.0000000E+000	0.0000000E+000	49.0425	0.0000000E+000	0.0000000E+000	0.0000000E+000	-49.0425	0.0000000E+000	0.0000000E+000	0.0000000E+000	-40.9575	0.0000000E+000	0.0000000E+000	0.0000000E+000	40.9575	1.15209	49.0425	-2.23925e-06	-5.20559e-06	-2.06471e-09	-5.20353e-06	0.216919	9046.26	3.58805	9042.67
68.104	9.55284	7.71701	12.2804	-38.9321	9.80341	0.217008	-0.0215607	302.83	119.583	1	10	0.00474594	0.000386464	0	0.000144412	0.000276984	1.36013e-05	64.7371	0.0351944	0.01502	-0.0318284	-38.7724	12.2722	9.56786	7.68518	0.063344	0.0511707	0.0814304	38.9321	119583	148031	190298	-51.0679	0.0000000E+000	0.0000000E+000	0.0000000E+000	51.0679	0.0000000E+000	0.0000000E+000	0.0000000E+000	-51.0679	0.0000000E+000	0.0000000E+000	0.0000000E+000	-38.9321	0.0000000E+000	0.0000000E+000	0.0000000E+000	38.9321	1.23789	51.0679	-2.29703e-06	-4.67884e-06	-5.97196e-09	-4.67286e-06	0.216731	10065	12.8467	10052.1
46.4415	12.2226	8.51416	14.8957	-34.8608	10.2386	0.217005	-0.0264644	402.506	131.502	1	10	0.00474943	0.000318846	0	0.000141225	-2.84759e-05	1.28721e-05	-26.0131	0.0403709	0.0362811	0.0177057	-34.837	14.9356	12.2588	8.53186	0.0550859	0.0383725	0.0671335	34.8608	131502	188779	230066	-55.1392	0.0000000E+000	0.0000000E+000	0.0000000E+000	55.1392	0.0000000E+000	0.0000000E+000	0.0000000E+000	-55.1392	0.0000000E+000	0.0000000E+000	0.0000000E+000	-34.8608	0.0000000E+000	0.0000000E+000	0.0000000E+000	34.8608	1.43556	55.1392	-3.18675e-06	-5.74291e-06	7.53598e-10	-5.74366e-06	0.217033	8199.87	1.07601	8200.94
31.6296	15.1569	8.604	17.4288	-29.5819	10.9045	0.217034	-0.0120638	584.826	142.526	1	11	0.00475007	0.000272542	0	0.000138014	0.000200619	1.18769e-05	-6.91979	0.0435783	0.0432609	0.0052503	-29.5268	17.469	15.2002	8.60925	0.0498975	0.0283248	0.0573764	29.5819	142526	251076	288709	-60.4181	0.0000000E+000	0.0000000E+000	0.0000000E+000	60.4181	0.0000000E+000	0.0000000E+000	0.0000000E+000	-60.4181	0.0000000E+000	0.0000000E+000	0.0000000E+000	-29.5819	0.0000000E+000	0.0000000E+000	0.0000000E+000	29.5819	1.76162	60.4181	-3.21048e-06	-2.61824e-06	-2.42021e-09	-2.61582e-06	0.216833	17990.6	16.6299	17973.9
21.5517	17.9086	7.87789	19.5647	-23.7445	11.3255	0.217036	-0.0119063	937.408	151.985	1	11	0.00474653	0.000242607	0	0.000136452	0.000105163	5.10265e-06	-66.5461	0.0210326	0.0083712	0.0192949	-23.7863	19.5801	17.9169	7.89718	0.0467858	0.0205808	0.0511125	23.7445	151985	345503	377455	-66.2555	0.0000000E+000	0.0000000E+000	0.0000000E+000	66.2555	0.0000000E+000	0.0000000E+000	0.0000000E+000	-66.2555	0.0000000E+000	0.0000000E+000	0.0000000E+000	-23.7445	0.0000000E+000	0.0000000E+000	0.0000000E+000	23.7445	2.27327	66.2555	-1.56215e-06	-2.58409e-06	-1.25209e-09	-2.58284e-06	0.216931	18228.8	8.83255	18219.9
14.6852	20.0699	6.71149	21.1623	-18.4902	11.7862	0.217033	-0.0111478	1614.82	162.418	1	11	0.00474565	0.00022425	0	0.000133971	0.000296075	3.40031e-06	-81.5889	0.0151631	0.00221797	0.015	-18.5268	21.1692	20.0721	6.72649	0.0448144	0.0149862	0.0472538	18.4902	162418	485690	512127	-71.5098	0.0000000E+000	0.0000000E+000	0.0000000E+000	71.5098	0.0000000E+000	0.0000000E+000	0.0000000E+000	-71.5098	0.0000000E+000	0.0000000E+000	0.0000000E+000	-18.4902	0.0000000E+000	0.0000000E+000	0.0000000E+000	18.4902	2.99038	71.5098	-2.4809e-06	-2.41945e-06	-3.3006e-09	-2.41615e-06	0.216737	19468.6	26.5589	19442.1
10.0032	21.5883	5.4622	22.2686	-14.1988	12.2368	0.217036	-0.0112469	2912.82	175.252	1	11	0.00474306	0.000212993	0	0.000133908	4.7889e-05	2.37468e-05	22.6791	0.111491	0.10287	-0.0429876	-14.0273	22.3579	21.6912	5.41921	0.0435344	0.0110149	0.0449063	14.1988	175252	692650	714477	-75.8012	0.0000000E+000	0.0000000E+000	0.0000000E+000	75.8012	0.0000000E+000	0.0000000E+000	0.0000000E+000	-75.8012	0.0000000E+000	0.0000000E+000	0.0000000E+000	-14.1988	0.0000000E+000	0.0000000E+000	0.0000000E+000	14.1988	3.95231	75.8012	-6.34254e-08	-2.44098e-06	-5.38602e-10	-2.44044e-06	0.216988	19297.5	4.25798	19293.2
6.81719	22.5986	4.23143	22.9914	-10.6054	12.5765	0.217024	-0.0116259	5517.31	186.884	1	11	0.00474181	0.000206243	0	0.00013095	0.000162436	8.83776e-06	-12.0234	0.0428512	0.0419111	0.0089264	-10.6081	23.0342	22.6405	4.24036	0.0427516	0.00800494	0.0434946	10.6054	186884	998084	1.01543e+06	-79.3946	0.0000000E+000	0.0000000E+000	0.0000000E+000	79.3946	0.0000000E+000	0.0000000E+000	0.0000000E+000	-79.3946	0.0000000E+000	0.0000000E+000	0.0000000E+000	-10.6054	0.0000000E+000	0.0000000E+000	0.0000000E+000	10.6054	5.34066	79.3946	-2.95758e-06	-2.52311e-06	-1.88847e-09	-2.52122e-06	0.216862	18667.3	13.9719	18653.3
4.63925	23.2815	3.26142	23.5088	-7.97448	13.0615	0.217027	-0.0111531	10518.8	202.45	1	11	0.00474141	0.000201687	0	0.000130592	0.000181527	1.53267e-05	88.7821	0.0759924	0.00161525	-0.0759752	-7.79049	23.5	23.2831	3.18545	0.0421259	0.00590128	0.0425373	7.97448	202450	1.44518e+06	1.45929e+06	-82.0255	0.0000000E+000	0.0000000E+000	0.0000000E+000	82.0255	0.0000000E+000	0.0000000E+000	0.0000000E+000	-82.0255	0.0000000E+000	0.0000000E+000	0.0000000E+000	-7.97448	0.0000000E+000	0.0000000E+000	0.0000000E+000	7.97448	7.13844	82.0255	-3.58228e-07	-2.42052e-06	-2.02459e-09	-2.41849e-06	0.216846	19459	16.276	19442.7
3.1604	23.7521	2.57542	23.8913	-6.18836	13.7544	0.217022	-0.0109312	19553.8	227.22	1	11	0.00474936	0.000198791	0	0.000131095	0.000143345	8.43669e-06	14.2553	0.0424401	0.0411333	-0.0104506	-6.15287	23.931	23.7932	2.56497	0.0416124	0.004512	0.0418563	6.18836	227221	2.09556e+06	2.10785e+06	-83.8116	0.0000000E+000	0.0000000E+000	0.0000000E+000	83.8116	0.0000000E+000	0.0000000E+000	0.0000000E+000	-83.8116	0.0000000E+000	0.0000000E+000	0.0000000E+000	-6.18836	0.0000000E+000	0.0000000E+000	0.0000000E+000	6.18836	9.22261	83.8116	5.03341e-07	-2.3723e-06	-1.56693e-09	-2.37074e-06	0.216879	19853.6	13.1134	19840.4
2.15577	24.1038	2.10286	24.1954	-4.98596	14.7581	0.217041	-0.00969003	35108.2	265.194	1	11	0.00475099	0.00019636	0	0.000128639	0.000143345	4.51393e-06	37.4648	0.0229881	0.0182463	-0.013983	-4.94925	24.2123	24.122	2.08888	0.0411739	0.00359208	0.0413302	4.98596	265194	3.03976e+06	3.05131e+06	-85.014	0.0000000E+000	0.0000000E+000	0.0000000E+000	85.014	0.0000000E+000	0.0000000E+000	0.0000000E+000	-85.014	0.0000000E+000	0.0000000E+000	0.0000000E+000	-4.98596	0.0000000E+000	0.0000000E+000	0.0000000E+000	4.98596	11.4624	85.014	-2.45684e-06	-2.10313e-06	-1.38902e-09	-2.10174e-06	0.216897	22398.3	14.7931	22383.6
1.46631	24.358	1.74903	24.4207	-4.10709	16.2195	0.217028	-0.00932341	62057.8	318.328	1	11	0.00474896	0.000194464	0	0.000121196	-8.57495e-05	3.8201e-06	-45.9926	0.0196442	0.0136479	0.0141291	-4.13784	24.4354	24.3717	1.76316	0.0408436	0.00293279	0.0409488	4.10709	318328	4.43321e+06	4.44463e+06	-85.8929	0.0000000E+000	0.0000000E+000	0.0000000E+000	85.8929	0.0000000E+000	0.0000000E+000	0.0000000E+000	-85.8929	0.0000000E+000	0.0000000E+000	0.0000000E+000	-4.10709	0.0000000E+000	0.0000000E+000	0.0000000E+000	4.10709	13.9266	85.8929	-7.44242e-06	-2.02344e-06	7.99478e-10	-2.02424e-06	0.217114	23277.8	9.19722	23287
1.00006	24.5762	1.52937	24.6237	-3.56091	19.3929	0.217039	-0.00859096	104059	401.418	1	12	0.0047462	0.000192749	0	0.000107094	-4.75671e-05	2.5795e-06	-7.20282	0.0133827	0.0132771	0.00167795	-3.56288	24.6371	24.5895	1.53105	0.0405328	0.00252234	0.0406112	3.56091	401418	6.45058e+06	6.46306e+06	-86.4391	0.0000000E+000	0.0000000E+000	0.0000000E+000	86.4391	0.0000000E+000	0.0000000E+000	0.0000000E+000	-86.4391	0.0000000E+000	0.0000000E+000	0.0000000E+000	-3.56091	0.0000000E+000	0.0000000E+000	0.0000000E+000	3.56091	16.0695	86.4391	-1.41026e-05	-1.86457e-06	4.08647e-10	-1.86498e-06	0.217087	25263.7	5.53688	25269.2
0.681362	24.8095	1.41836	24.85	-3.27204	22.5051	0.217041	-0.00844883	164686	536.507	1	12	0.00474739	0.000191042	0	9.66515e-05	0.000200619	3.63057e-06	-35.6167	0.019004	0.015449	0.0110672	-3.29547	24.8661	24.825	1.42943	0.0401758	0.00229685	0.0402414	3.27204	536507	9.38441e+06	9.39973e+06	-86.728	0.0000000E+000	0.0000000E+000	0.0000000E+000	86.728	0.0000000E+000	0.0000000E+000	0.0000000E+000	-86.728	0.0000000E+000	0.0000000E+000	0.0000000E+000	-3.27204	0.0000000E+000	0.0000000E+000	0.0000000E+000	3.27204	17.4917	86.728	-1.04422e-05	-1.83374e-06	-1.69499e-09	-1.83204e-06	0.21684	25688.9	23.7452	25665.1
0.464091	25.0207	1.44682	25.0625	-3.30944	27.0618	0.217041	-0.00845385	237030	789.921	1	12	0.00475015	0.000189532	0	9.07474e-05	-0.00025757	2.17226e-06	19.2663	0.0114612	0.0108193	-0.00378173	-3.29939	25.0731	25.0315	1.44304	0.0398337	0.00230338	0.0399003	3.30944	789921	1.36605e+07	1.36834e+07	-86.6906	0.0000000E+000	0.0000000E+000	0.0000000E+000	86.6906	0.0000000E+000	0.0000000E+000	0.0000000E+000	-86.6906	0.0000000E+000	0.0000000E+000	0.0000000E+000	-3.30944	0.0000000E+000	0.0000000E+000	0.0000000E+000	3.30944	17.2936	86.6906	-5.90406e-06	-1.83483e-06	2.17746e-09	-1.837e-06	0.217298	25673.6	30.4678	25704.1
0.316193	25.199	1.55612	25.247	-3.53371	33.7368	0.217043	-0.00793441	323463	1228.83	1	12	0.00474637	0.000187998	0	9.11637e-05	-0.000372118	1.34993e-06	-39.559	0.00718058	0.00553601	0.00457311	-3.5433	25.2528	25.2045	1.56069	0.0395334	0.00244132	0.0396087	3.53371	1.22883e+06	1.9899e+07	1.99369e+07	-86.4663	0.0000000E+000	0.0000000E+000	0.0000000E+000	86.4663	0.0000000E+000	0.0000000E+000	0.0000000E+000	-86.4663	0.0000000E+000	0.0000000E+000	0.0000000E+000	-3.53371	0.0000000E+000	0.0000000E+000	0.0000000E+000	3.53371	16.1935	86.4663	4.16256e-07	-1.72211e-06	2.95254e-09	-1.72506e-06	0.217415	27354.6	46.8992	27401.5
0.215268	25.4491	1.7504	25.5093	-3.93462	43.5302	0.217041	-0.00679404	422380	1988.76	1	12	0.00474827	0.000186139	0	9.57634e-05	-0.000123932	1.33892e-06	-22.9311	0.00719311	0.00662466	0.00280261	-3.93988	25.5161	25.4558	1.7532	0.039109	0.00268993	0.0392014	3.93462	1.98876e+06	2.89147e+07	2.8983e+07	-86.0654	0.0000000E+000	0.0000000E+000	0.0000000E+000	86.0654	0.0000000E+000	0.0000000E+000	0.0000000E+000	-86.0654	0.0000000E+000	0.0000000E+000	0.0000000E+000	-3.93462	0.0000000E+000	0.0000000E+000	0.0000000E+000	3.93462	14.539	86.0654	4.59975e-06	-1.47458e-06	8.41998e-10	-1.47543e-06	0.217165	31945.8	18.2413	31964
0.146929	25.76	2.09922	25.8454	-4.65883	57.8686	0.217038	-0.00520894	516006	3404.12	1	12	0.00474771	0.000183697	0	9.39071e-05	0.000200619	1.84264e-06	-28.2189	0.0100309	0.00883868	0.00474301	-4.66771	25.8546	25.7688	2.10397	0.0385638	0.00314262	0.0386916	4.65883	3.40412e+06	4.17727e+07	4.19112e+07	-85.3412	0.0000000E+000	0.0000000E+000	0.0000000E+000	85.3412	0.0000000E+000	0.0000000E+000	0.0000000E+000	-85.3412	0.0000000E+000	0.0000000E+000	0.0000000E+000	-4.65883	0.0000000E+000	0.0000000E+000	0.0000000E+000	4.65883	12.2712	85.3412	-1.85631e-06	-1.13054e-06	-1.04501e-09	-1.12949e-06	0.216837	41666.5	38.5143	41627.9
0.0999041	26.1678	2.63424	26.3001	-5.74843	78.9458	0.217042	-0.00357977	604758	6067.06	1	12	0.00474621	0.000180464	0	6.6674e-05	-0.000123932	1.62436e-06	-50.4198	0.00900102	0.00573507	0.00693739	-5.76222	26.3065	26.1735	2.64118	0.0378315	0.00380839	0.0380227	5.74843	6.06706e+06	6.02685e+07	6.05731e+07	-84.2516	0.0000000E+000	0.0000000E+000	0.0000000E+000	84.2516	0.0000000E+000	0.0000000E+000	0.0000000E+000	-84.2516	0.0000000E+000	0.0000000E+000	0.0000000E+000	-5.74843	0.0000000E+000	0.0000000E+000	0.0000000E+000	5.74843	9.93373	84.2516	-2.72331e-05	-7.76962e-07	4.43648e-10	-7.77406e-07	0.217166	60630.2	34.6201	60664.8
0.0680626	26.6408	3.35159	26.8508	-7.17051	109.872	0.217039	-0.00251504	697688	10870.4	1	12	0.00475243	0.000176994	0	-1.10773e-06	6.69802e-05	1.87596e-06	-21.0794	0.010599	0.00988975	0.00381205	-7.17594	26.8611	26.6507	3.3554	0.0369515	0.00464874	0.0372428	7.17051	1.08704e+07	8.6406e+07	8.70871e+07	-82.8295	0.0000000E+000	0.0000000E+000	0.0000000E+000	82.8295	0.0000000E+000	0.0000000E+000	0.0000000E+000	-82.8295	0.0000000E+000	0.0000000E+000	0.0000000E+000	-7.17051	0.0000000E+000	0.0000000E+000	0.0000000E+000	7.17051	7.94872	82.8295	-6.77817e-05	-5.45862e-07	-1.68458e-10	-5.45694e-07	0.216972	86296.6	26.6319	86269.9
0.0464052	27.2227	4.18856	27.5431	-8.74708	155.223	0.217039	-0.00228431	818821	18936.2	1	12	0.00474454	0.000172259	0	-0.000133228	-0.000200297	2.16267e-06	12.3464	0.0125548	0.0122644	-0.00268448	-8.73769	27.5548	27.235	4.18587	0.0358845	0.00552128	0.0363068	8.74708	1.89362e+07	1.23072e+08	1.24521e+08	-81.2529	0.0000000E+000	0.0000000E+000	0.0000000E+000	81.2529	0.0000000E+000	0.0000000E+000	0.0000000E+000	-81.2529	0.0000000E+000	0.0000000E+000	0.0000000E+000	-8.74708	0.0000000E+000	0.0000000E+000	0.0000000E+000	8.74708	6.49931	81.2529	-0.00013212	-4.95783e-07	4.57539e-10	-4.9624e-07	0.217239	95012.9	87.6839	95100.6
0.0315922	28.1324	5.27658	28.6229	-10.6231	221.829	0.217043	-0.00210935	954746	32446.3	1	12	0.00474908	0.000165919	0	-0.000307187	0.000296075	2.42244e-06	20.3467	0.0146001	0.0136891	-0.00507647	-10.6081	28.6354	28.146	5.2715	0.0343383	0.00644058	0.034937	10.6231	3.24463e+07	1.72989e+08	1.76006e+08	-79.3769	0.0000000E+000	0.0000000E+000	0.0000000E+000	79.3769	0.0000000E+000	0.0000000E+000	0.0000000E+000	-79.3769	0.0000000E+000	0.0000000E+000	0.0000000E+000	-10.6231	0.0000000E+000	0.0000000E+000	0.0000000E+000	10.6231	5.33155	79.3769	-0.000173959	-4.5782e-07	-6.24526e-10	-4.57195e-07	0.216747	102896	140.363	102755
0.0215268	29.2969	6.84498	30.0859	-13.1508	319.567	0.217041	-0.00207383	1.08011e+06	55909.6	1	12	0.00474626	0.000157757	0	-0.000444826	-0.000104841	1.63447e-06	46.3655	0.0103607	0.00714944	-0.0074986	-13.1338	30.0912	29.3041	6.83748	0.0323664	0.00756215	0.0332381	13.1508	5.59096e+07	2.39296e+08	2.45741e+08	-76.8492	0.0000000E+000	0.0000000E+000	0.0000000E+000	76.8492	0.0000000E+000	0.0000000E+000	0.0000000E+000	-76.8492	0.0000000E+000	0.0000000E+000	0.0000000E+000	-13.1508	0.0000000E+000	0.0000000E+000	0.0000000E+000	13.1508	4.28006	76.8492	-0.000137639	-4.50107e-07	2.17422e-10	-4.50324e-07	0.217146	104657	50.5541	104707
0.0146812	30.5979	8.83463	31.8478	-16.1052	462.87	0.217047	-0.00152004	1.22707e+06	94425.4	1	12	0.00474277	0.00014892	0	-0.000415081	4.7889e-05	2.22385e-06	1.92774	0.0149332	0.0149247	-0.000502339	-16.0969	31.862	30.6128	8.83413	0.030167	0.00871022	0.0313993	16.1052	9.44253e+07	3.27033e+08	3.40392e+08	-73.8948	0.0000000E+000	0.0000000E+000	0.0000000E+000	73.8948	0.0000000E+000	0.0000000E+000	0.0000000E+000	-73.8948	0.0000000E+000	0.0000000E+000	0.0000000E+000	-16.1052	0.0000000E+000	0.0000000E+000	0.0000000E+000	16.1052	3.46341	73.8948	2.97451e-05	-3.2992e-07	-7.27931e-11	-3.29847e-07	0.216999	142790	31.5051	142759
0.0100092	32.2456	11.0631	34.0906	-18.9365	673.052	0.217047	-0.000516422	1.43729e+06	151366	1	12	0.00474839	0.000139287	0	-0.000101621	-2.84759e-05	3.29537e-06	4.68607	0.0236588	0.0235797	-0.00193284	-18.9206	34.1123	32.2692	11.0612	0.027746	0.00951934	0.0293336	18.9365	1.51366e+08	4.41187e+08	4.66431e+08	-71.0635	0.0000000E+000	0.0000000E+000	0.0000000E+000	71.0635	0.0000000E+000	0.0000000E+000	0.0000000E+000	-71.0635	0.0000000E+000	0.0000000E+000	0.0000000E+000	-18.9365	0.0000000E+000	0.0000000E+000	0.0000000E+000	18.9365	2.9147	71.0635	0.00031346	-1.12088e-07	1.47056e-11	-1.12103e-07	0.217075	420290	55.1407	420345