File: txt/19491_R316_UA628_SOC00_C01.mpt
EC-Lab ASCII FILE
Nb header lines : 65

Potentio Electrochemical Impedance Spectroscopy

Run on channel : 1 (SN 66354)
User :
CE vs. WE compliance from -10 V to 10 V
Electrode connection : standard
Potential control : Ewe
Ewe ctrl range : min = -10.00 V, max = 10.00 V
Safety Limits :
	Do not start on E overload
Acquisition started on : 12/04/2025 13:09:28.813
Technique started on : 12/04/2025 13:09:30.725
Loaded Setting File :  C:\Users\Celltest\OneDrive - store-dot.com\Documents\EC-Lab\Data\@Biologic Test Protocols\anode half cell EIS SOC00.mps
Saved on :
	File : 19491_R316_UA628_SOC00_C01.mpr
	Directory : C:\Users\Celltest\OneDrive - store-dot.com\Documents\EC-Lab\Data\Charmaine\
	Host : 169.254.61.224
Device : VMP-3e (SN .003165)
Address : USB
EC-LAB for windows v11.62 (software)
Internet server v27.00 (firmware)
Command interpretor v12.03 (firmware)
Electrode material :
Initial state :
Electrolyte :
Comments :
Electrode surface area : 0.001 cm²
Characteristic mass : 0.001 g
Equivalent Weight : 0.000 g/eq.
Density : 0.000 g/cm3
Volume (V) : 0.001 cm³
Record Ece
Cycle Definition : Charge/Discharge alternance
Mode                Single sine
E (V)               0.0000
vs.                 Eoc
tE (h:m:s)          0:00:0.0000
record              0
dI                  0.000
unit dI             mA
dt (s)              0.000
fi                  100.000
unit fi             kHz
ff                  10.000
unit ff             mHz
Nd                  6
Points              per decade
spacing             Logarithmic
Va (mV)             5.0
pw                  0.10
Na                  2
corr                0
E range min (V)     -10.000
E range max (V)     10.000
I Range             Auto
Bandwidth           5
nc cycles           0
goto Ns'            0
nr cycles           0
inc. cycle          0

freq/Hz	Re(Z)/Ohm	-Im(Z)/Ohm	|Z|/Ohm	Phase(Z)/deg	time/s	<Ewe>/V	<I>/mA	Cs/µF	Cp/µF	cycle number	I Range	|Ewe|/V	|I|/A	Ns	(Q-Qo)/mA.h	<Ece>/V	|Ece|/V	Phase(Zce)/deg	|Zce|/Ohm	Re(Zce)/Ohm	-Im(Zce)/Ohm	Phase(Zwe-ce)/deg	|Zwe-ce|/Ohm	Re(Zwe-ce)/Ohm	-Im(Zwe-ce)/Ohm	Re(Y)/Ohm-1	Im(Y)/Ohm-1	|Y|/Ohm-1	Phase(Y)/deg	Re(C)/nF	Im(C)/nF	|C|/nF	Phase(C)/deg	Re(M)	Im(M)	|M|	Phase(M)/deg	Re(Permittivity)	Im(Permittivity)	|Permittivity|	Phase(Permittivity)/deg	Re(Resistivity)/Ohm.cm	Im(Resistivity)/Ohm.cm	|Resistivity|/Ohm.cm	Phase(Resistivity)/deg	Re(Conductivity)/mS/cm	Im(Conductivity)/mS/cm	|Conductivity|/mS/cm	Phase(Conductivity)/deg	Tan(Delta)	Loss Angle(Delta)/deg	dq/mA.h	Pwe/W	Pce/W	Pwe-ce/W	<Ewe-Ece>/V	Rwe/Ohm	Rce/Ohm	Rwe-ce/Ohm		Ewe-Ece/V
100004	1.1005	0.40792	1.17367	-20.3381	1.91156	0.220025	0.0677611	3.90147	0.471288	1	9	0.00478268	0.00407497	0	5.833e-06	0.000277768	4.61486e-05	91.555	0.0113249	-0.000307323	-0.0113207	-19.8233	1.1695	1.10019	0.396599	0.798911	0.29613	0.852028	20.3381	471.288	1271.46	1355.99	-69.6619	0.0000000E+000	0.0000000E+000	0.0000000E+000	69.6619	0.0000000E+000	0.0000000E+000	0.0000000E+000	-69.6619	0.0000000E+000	0.0000000E+000	0.0000000E+000	-20.3381	0.0000000E+000	0.0000000E+000	0.0000000E+000	20.3381	2.69784	69.6619	5.833e-06	1.49091e-05	1.88219e-08	1.48903e-05	0.219747	3247.06	4.09923	3242.96
68132	1.21247	0.462845	1.29781	-20.8938	2.41853	0.22003	0.0721571	5.047	0.641926	1	9	0.00503771	0.00388171	0	-4.89264e-06	-8.47007e-05	2.90586e-05	86.4207	0.00748603	0.000467355	-0.00747143	-20.5777	1.2956	1.21293	0.455374	0.719864	0.2748	0.770531	20.8938	641.926	1681.59	1799.94	-69.1062	0.0000000E+000	0.0000000E+000	0.0000000E+000	69.1062	0.0000000E+000	0.0000000E+000	0.0000000E+000	-69.1062	0.0000000E+000	0.0000000E+000	0.0000000E+000	-20.8938	0.0000000E+000	0.0000000E+000	0.0000000E+000	20.8938	2.61959	69.1062	-1.07256e-05	1.58767e-05	-6.11176e-09	1.58828e-05	0.220115	3049.32	1.17384	3050.49
46420.4	1.3385	0.510292	1.43247	-20.869	2.92553	0.220028	0.0747649	6.71882	0.852626	1	9	0.00505241	0.00352706	0	-1.09065e-05	-0.000103778	2.33848e-05	82.4774	0.00663012	0.000867992	-0.00657305	-20.6106	1.43096	1.33937	0.503719	0.652298	0.248683	0.698094	20.869	852.625	2236.44	2393.46	-69.1311	0.0000000E+000	0.0000000E+000	0.0000000E+000	69.1311	0.0000000E+000	0.0000000E+000	0.0000000E+000	-69.1311	0.0000000E+000	0.0000000E+000	0.0000000E+000	-20.869	0.0000000E+000	0.0000000E+000	0.0000000E+000	20.869	2.62301	69.1311	-6.01388e-06	1.64504e-05	-7.75896e-09	1.64581e-05	0.220132	2942.93	1.38806	2944.32
31621.1	1.46346	0.567152	1.56952	-21.1834	3.43253	0.220029	0.0729767	8.87448	1.1588	1	9	0.00510324	0.00325147	0	1.39465e-06	-0.000122855	1.35674e-05	19.285	0.00417271	0.00393857	-0.00137811	-21.0847	1.5727	1.4674	0.565774	0.594086	0.230233	0.637138	21.1834	1158.8	2990.14	3206.83	-68.8166	0.0000000E+000	0.0000000E+000	0.0000000E+000	68.8166	0.0000000E+000	0.0000000E+000	0.0000000E+000	-68.8166	0.0000000E+000	0.0000000E+000	0.0000000E+000	-21.1834	0.0000000E+000	0.0000000E+000	0.0000000E+000	21.1834	2.58037	68.8166	1.23012e-05	1.6057e-05	-8.96558e-09	1.6066e-05	0.220152	3015.06	1.68349	3016.74
21544.7	1.60494	0.622206	1.72133	-21.1904	3.81556	0.220017	0.0665689	11.8726	1.55126	1	9	0.00519403	0.00301745	0	4.98818e-06	-2.74688e-05	1.08498e-05	-98.4906	0.00359568	-0.000530894	0.00355627	-21.3071	1.72213	1.60441	0.625762	0.541665	0.209993	0.580946	21.1904	1551.26	4001.39	4291.56	-68.8096	0.0000000E+000	0.0000000E+000	0.0000000E+000	68.8096	0.0000000E+000	0.0000000E+000	0.0000000E+000	-68.8096	0.0000000E+000	0.0000000E+000	0.0000000E+000	-21.1904	0.0000000E+000	0.0000000E+000	0.0000000E+000	21.1904	2.57944	68.8096	3.59353e-06	1.46463e-05	-1.82857e-09	1.46481e-05	0.220045	3305.1	0.412637	3305.51
14678.6	1.74535	0.68006	1.87316	-21.288	4.19856	0.22002	0.0737218	15.9437	2.10153	1	9	0.00490191	0.00261693	0	1.69949e-05	-6.56234e-05	1.02364e-05	-5.179	0.00391161	0.00389564	0.000353091	-21.2548	1.87692	1.74924	0.680413	0.497432	0.19382	0.533858	21.288	2101.53	5393.48	5788.44	-68.712	0.0000000E+000	0.0000000E+000	0.0000000E+000	68.712	0.0000000E+000	0.0000000E+000	0.0000000E+000	-68.712	0.0000000E+000	0.0000000E+000	0.0000000E+000	-21.288	0.0000000E+000	0.0000000E+000	0.0000000E+000	21.288	2.56646	68.712	1.20067e-05	1.62203e-05	-4.83787e-09	1.62251e-05	0.220086	2984.47	0.89015	2985.36
10002.2	1.90209	0.751083	2.04501	-21.5477	4.58155	0.220028	0.0787511	21.1854	2.85772	1	9	0.00487702	0.00238483	0	2.80769e-05	-2.74688e-05	3.88108e-06	-21.6018	0.0016274	0.0015131	0.000599133	-21.5477	2.04664	1.9036	0.751682	0.45482	0.179596	0.488995	21.5477	2857.72	7237.07	7780.86	-68.4523	0.0000000E+000	0.0000000E+000	0.0000000E+000	68.4523	0.0000000E+000	0.0000000E+000	0.0000000E+000	-68.4523	0.0000000E+000	0.0000000E+000	0.0000000E+000	-21.5477	0.0000000E+000	0.0000000E+000	0.0000000E+000	21.5477	2.53246	68.4523	1.1082e-05	1.73275e-05	-2.1632e-09	1.73296e-05	0.220056	2793.97	0.348805	2794.32
6810.42	2.06993	0.845039	2.23578	-22.2075	4.84052	0.22001	0.0663454	27.6547	3.95063	1	9	0.00459856	0.00205681	0	3.22197e-05	0.00012515	4.65198e-05	107.357	0.0226175	-0.00674727	-0.0215876	-21.7578	2.22144	2.06318	0.823451	0.414094	0.169052	0.447272	22.2075	3950.63	9677.1	10452.4	-67.7925	0.0000000E+000	0.0000000E+000	0.0000000E+000	67.7925	0.0000000E+000	0.0000000E+000	0.0000000E+000	-67.7925	0.0000000E+000	0.0000000E+000	0.0000000E+000	-22.2075	0.0000000E+000	0.0000000E+000	0.0000000E+000	22.2075	2.44951	67.7925	4.14277e-06	1.45967e-05	8.3031e-09	1.45884e-05	0.219885	3316.13	1.88634	3314.25
4646	2.26467	0.938898	2.45158	-22.5182	5.23363	0.219984	0.0548338	36.4857	5.35139	1	9	0.00498745	0.00203438	0	3.72349e-05	0.000182382	1.17221e-06	5.22906	0.0005762	0.000573802	-5.25136e-05	-22.5119	2.45209	2.26524	0.938845	0.376801	0.156216	0.4079	22.5182	5351.39	12907.8	13973.2	-67.4818	0.0000000E+000	0.0000000E+000	0.0000000E+000	67.4818	0.0000000E+000	0.0000000E+000	0.0000000E+000	-67.4818	0.0000000E+000	0.0000000E+000	0.0000000E+000	-22.5182	0.0000000E+000	0.0000000E+000	0.0000000E+000	22.5182	2.41205	67.4818	5.01524e-06	1.20625e-05	1.00007e-08	1.20525e-05	0.219801	4011.83	3.32608	4008.5
3163.08	2.46058	1.08139	2.68772	-23.7248	5.60668	0.219766	0.000144423	46.5296	7.53222	1	9	0.00491135	0.00182733	0	3.74165e-05	6.79177e-05	8.77214e-06	-12.3529	0.00480052	0.00468938	0.00102699	-23.7046	2.69243	2.46527	1.08241	0.340619	0.149697	0.372063	23.7248	7532.22	17138.8	18720.9	-66.2752	0.0000000E+000	0.0000000E+000	0.0000000E+000	66.2752	0.0000000E+000	0.0000000E+000	0.0000000E+000	-66.2752	0.0000000E+000	0.0000000E+000	0.0000000E+000	-23.7248	0.0000000E+000	0.0000000E+000	0.0000000E+000	23.7248	2.27539	66.2752	1.81553e-07	3.17392e-08	9.8089e-12	3.17294e-08	0.219698	1.52168e+06	470.269	1.52121e+06
2155.69	2.68407	1.24933	2.96058	-24.9602	6.05784	0.219951	0.122562	59.0956	10.5234	1	9	0.00485625	0.0016403	0	5.09598e-05	-0.000141933	7.94635e-06	-143.055	0.00484444	-0.00387173	0.00291176	-25.043	2.9583	2.6802	1.25225	0.306224	0.142536	0.337771	24.9602	10523.4	22608.5	24937.7	-65.0398	0.0000000E+000	0.0000000E+000	0.0000000E+000	65.0398	0.0000000E+000	0.0000000E+000	0.0000000E+000	-65.0398	0.0000000E+000	0.0000000E+000	0.0000000E+000	-24.9602	0.0000000E+000	0.0000000E+000	0.0000000E+000	24.9602	2.1484	65.0398	1.35433e-05	2.69577e-05	-1.73956e-08	2.69751e-05	0.220093	1794.61	1.15805	1795.76
1468.59	2.92574	1.45898	3.26933	-26.5041	6.50809	0.219948	0.122711	74.2798	14.7928	1	9	0.00483927	0.0014802	0	6.69571e-05	0.000106072	6.91234e-06	-101.897	0.00466986	-0.000962721	0.00456955	-26.5832	3.27052	2.92477	1.46355	0.273726	0.136499	0.305873	26.5041	14792.8	29664.4	33148.2	-63.4959	0.0000000E+000	0.0000000E+000	0.0000000E+000	63.4959	0.0000000E+000	0.0000000E+000	0.0000000E+000	-63.4959	0.0000000E+000	0.0000000E+000	0.0000000E+000	-26.5041	0.0000000E+000	0.0000000E+000	0.0000000E+000	26.5041	2.00533	63.4959	1.59973e-05	2.69901e-05	1.30163e-08	2.69771e-05	0.219842	1792.41	0.864406	1791.54
1000.32	3.23919	1.71996	3.66751	-27.9675	7.20383	0.219941	-0.0161716	92.5047	20.3449	1	10	0.00493414	0.00134537	0	7.388e-05	1.06858e-05	7.75344e-06	-89.4738	0.00576307	5.29222e-05	0.00576282	-28.0466	3.67026	3.23925	1.72572	0.240821	0.127872	0.272665	27.9675	20344.9	38315.6	43382	-62.0325	0.0000000E+000	0.0000000E+000	0.0000000E+000	62.0325	0.0000000E+000	0.0000000E+000	0.0000000E+000	-62.0325	0.0000000E+000	0.0000000E+000	0.0000000E+000	-27.9675	0.0000000E+000	0.0000000E+000	0.0000000E+000	27.9675	1.8833	62.0325	6.92289e-06	-3.5568e-06	-1.72807e-10	-3.55662e-06	0.21993	13600.4	0.660775	13599.8
681.09	3.56925	2.0763	4.12923	-30.1873	7.65351	0.219942	-0.0160449	112.545	28.4555	1	10	0.00489656	0.00118583	0	7.27972e-05	-6.56234e-05	1.47344e-05	-34.8804	0.0124254	0.0101931	0.00710564	-30.2014	4.14162	3.57944	2.0834	0.209333	0.121773	0.242176	30.1873	28455.5	48916.4	56590.9	-59.8127	0.0000000E+000	0.0000000E+000	0.0000000E+000	59.8127	0.0000000E+000	0.0000000E+000	0.0000000E+000	-59.8127	0.0000000E+000	0.0000000E+000	0.0000000E+000	-30.1873	0.0000000E+000	0.0000000E+000	0.0000000E+000	30.1873	1.71905	59.8127	-1.08278e-06	-3.52895e-06	1.05292e-09	-3.53001e-06	0.220008	13707.9	4.08999	13712
463.961	3.97349	2.54284	4.71749	-32.6172	8.10531	0.219934	-0.0157393	134.903	39.1955	1	10	0.00486121	0.00103047	0	7.04574e-05	0.000201459	6.70628e-06	17.7624	0.006508	0.00619777	-0.00198539	-32.5564	4.72164	3.97969	2.54085	0.178546	0.114261	0.211977	32.6172	39195.6	61247.8	72715.7	-57.3828	0.0000000E+000	0.0000000E+000	0.0000000E+000	57.3828	0.0000000E+000	0.0000000E+000	0.0000000E+000	-57.3828	0.0000000E+000	0.0000000E+000	0.0000000E+000	-32.6172	0.0000000E+000	0.0000000E+000	0.0000000E+000	32.6172	1.56262	57.3828	-2.33985e-06	-3.46161e-06	-3.17082e-09	-3.45844e-06	0.219733	13973.6	12.7997	13960.8
316.316	4.47248	3.14237	5.46604	-35.0919	8.55306	0.219934	-0.016835	160.119	52.9189	1	10	0.00483542	0.00088463	0	6.90409e-05	-0.000103778	2.48726e-06	-17.4198	0.00281164	0.00268269	0.000841723	-35.083	5.46872	4.47517	3.14321	0.149694	0.105175	0.182948	35.0919	52918.9	75318.6	92050.5	-54.9081	0.0000000E+000	0.0000000E+000	0.0000000E+000	54.9081	0.0000000E+000	0.0000000E+000	0.0000000E+000	-54.9081	0.0000000E+000	0.0000000E+000	0.0000000E+000	-35.0919	0.0000000E+000	0.0000000E+000	0.0000000E+000	35.0919	1.42328	54.9081	-1.41643e-06	-3.70259e-06	1.74711e-09	-3.70434e-06	0.220038	13064.1	6.16441	13070.2
215.345	5.17649	3.91377	6.4895	-37.0917	9.00356	0.219944	-0.0161418	188.839	68.6845	1	10	0.00483335	0.000744795	0	6.79313e-05	0.000296845	9.22305e-06	-67.386	0.0123833	0.00476165	0.0114313	-37.1468	6.5002	5.18125	3.9252	0.122917	0.0929336	0.154095	37.0917	68684.5	90844.5	113887	-52.9083	0.0000000E+000	0.0000000E+000	0.0000000E+000	52.9083	0.0000000E+000	0.0000000E+000	0.0000000E+000	-52.9083	0.0000000E+000	0.0000000E+000	0.0000000E+000	-37.0917	0.0000000E+000	0.0000000E+000	0.0000000E+000	37.0917	1.32263	52.9083	-1.10961e-06	-3.5503e-06	-4.79163e-09	-3.54551e-06	0.219647	13625.7	18.3898	13607.4
146.737	6.14969	4.82332	7.81557	-38.1078	9.44953	0.21994	-0.017845	224.871	85.6455	1	10	0.00482377	0.000617201	0	6.56785e-05	0.000392232	1.40398e-05	25.9256	0.0227475	0.0204582	-0.00994526	-37.9581	7.82555	6.17014	4.81338	0.100677	0.0789633	0.12795	38.1078	85645.5	109197	138777	-51.8922	0.0000000E+000	0.0000000E+000	0.0000000E+000	51.8922	0.0000000E+000	0.0000000E+000	0.0000000E+000	-51.8922	0.0000000E+000	0.0000000E+000	0.0000000E+000	-38.1078	0.0000000E+000	0.0000000E+000	0.0000000E+000	38.1078	1.27499	51.8922	-2.25283e-06	-3.92483e-06	-6.99939e-09	-3.91783e-06	0.219548	12325	21.9799	12303
100.032	7.51357	5.7901	9.48573	-37.6185	9.9008	0.219937	-0.0160896	274.786	102.383	1	10	0.00480255	0.000506292	0	6.38474e-05	-8.47007e-05	2.99689e-05	39.0072	0.0591929	0.0459968	-0.0372571	-37.2712	9.4996	7.55957	5.75285	0.0835036	0.0643495	0.105422	37.6185	102383	132858	167730	-52.3815	0.0000000E+000	0.0000000E+000	0.0000000E+000	52.3815	0.0000000E+000	0.0000000E+000	0.0000000E+000	-52.3815	0.0000000E+000	0.0000000E+000	0.0000000E+000	-37.6185	0.0000000E+000	0.0000000E+000	0.0000000E+000	37.6185	1.29766	52.3815	-1.83107e-06	-3.53871e-06	1.36281e-09	-3.54007e-06	0.220022	13669.5	5.2643	13674.7
68.104	9.38071	6.68752	11.5205	-35.4851	10.3635	0.219931	-0.0132087	349.448	117.754	1	10	0.00480889	0.000417422	0	6.23513e-05	8.6995e-05	7.90737e-06	31.6017	0.0189433	0.0161343	-0.0099265	-35.3984	11.5278	9.39685	6.6776	0.0706801	0.0503879	0.0868022	35.4851	117754	165175	202851	-54.5149	0.0000000E+000	0.0000000E+000	0.0000000E+000	54.5149	0.0000000E+000	0.0000000E+000	0.0000000E+000	-54.5149	0.0000000E+000	0.0000000E+000	0.0000000E+000	-35.4851	0.0000000E+000	0.0000000E+000	0.0000000E+000	35.4851	1.40272	54.5149	-1.49616e-06	-2.90501e-06	-1.14909e-09	-2.90386e-06	0.219844	16650.4	6.58618	16643.8
46.4415	11.6548	7.18603	13.6921	-31.6568	10.8007	0.219932	-0.0180314	476.897	131.359	1	10	0.00481416	0.000351601	0	6.00231e-05	4.88404e-05	5.822e-06	-75.8962	0.0165586	0.00403496	0.0160594	-31.7051	13.704	11.6589	7.20209	0.0621677	0.0383308	0.0730347	31.6568	131359	213048	250290	-58.3432	0.0000000E+000	0.0000000E+000	0.0000000E+000	58.3432	0.0000000E+000	0.0000000E+000	0.0000000E+000	-58.3432	0.0000000E+000	0.0000000E+000	0.0000000E+000	-31.6568	0.0000000E+000	0.0000000E+000	0.0000000E+000	31.6568	1.62187	58.3432	-2.3282e-06	-3.96567e-06	-8.80661e-10	-3.96479e-06	0.219883	12197.2	2.70863	12194.4
31.6296	14.0847	7.0578	15.7541	-26.6153	11.2305	0.219935	-0.0208303	712.948	143.09	1	10	0.00481161	0.00030542	0	5.8415e-05	0.000182382	5.74724e-06	47.5982	0.0188175	0.0126891	-0.0138955	-26.5495	15.7592	14.0974	7.0439	0.0567494	0.028437	0.0634756	26.6153	143090	285554	319399	-63.3847	0.0000000E+000	0.0000000E+000	0.0000000E+000	63.3847	0.0000000E+000	0.0000000E+000	0.0000000E+000	-63.3847	0.0000000E+000	0.0000000E+000	0.0000000E+000	-26.6153	0.0000000E+000	0.0000000E+000	0.0000000E+000	26.6153	1.99562	63.3847	-1.6081e-06	-4.58132e-06	-3.79907e-09	-4.57752e-06	0.219753	10558.4	8.75558	10549.7
21.5517	16.3072	6.37994	17.5108	-21.3672	11.8834	0.219972	-0.0050169	1157.5	153.654	1	11	0.00481219	0.000274813	0	5.77104e-05	0.000201459	3.55858e-05	-38.9573	0.129491	0.100694	0.0814163	-21.4943	17.6343	16.4079	6.46136	0.0531823	0.0208068	0.0571076	21.3672	153654	392740	421728	-68.6328	0.0000000E+000	0.0000000E+000	0.0000000E+000	68.6328	0.0000000E+000	0.0000000E+000	0.0000000E+000	-68.6328	0.0000000E+000	0.0000000E+000	0.0000000E+000	-21.3672	0.0000000E+000	0.0000000E+000	0.0000000E+000	21.3672	2.55601	68.6328	-7.04551e-07	-1.10358e-06	-1.0107e-09	-1.10257e-06	0.219771	43846.3	40.1561	43806.2
14.6852	17.9663	5.29154	18.7294	-16.4111	12.3441	0.219972	-0.00436	2048.14	163.485	1	11	0.00480788	0.000256703	0	5.81183e-05	1.06858e-05	4.83808e-06	-27.5716	0.018847	0.0167066	0.00872347	-16.4222	18.7478	17.983	5.30027	0.0512169	0.0150847	0.0533921	16.4111	163485	555079	578654	-73.5889	0.0000000E+000	0.0000000E+000	0.0000000E+000	73.5889	0.0000000E+000	0.0000000E+000	0.0000000E+000	-73.5889	0.0000000E+000	0.0000000E+000	0.0000000E+000	-16.4111	0.0000000E+000	0.0000000E+000	0.0000000E+000	16.4111	3.39529	73.5889	4.07872e-07	-9.59076e-07	-4.65901e-11	-9.59029e-07	0.219961	50452.2	2.45087	50449.8
10.0032	19.1118	4.26355	19.5816	-12.5759	12.7948	0.219971	-0.00436856	3731.73	176.912	1	11	0.0048059	0.00024543	0	5.56131e-05	0.000373155	7.86049e-06	-89.7221	0.0320274	0.000155351	0.0320271	-12.6672	19.5887	19.1119	4.29558	0.0498433	0.0111193	0.0510685	12.5759	176912	793026	812520	-77.4241	0.0000000E+000	0.0000000E+000	0.0000000E+000	77.4241	0.0000000E+000	0.0000000E+000	0.0000000E+000	-77.4241	0.0000000E+000	0.0000000E+000	0.0000000E+000	-12.5759	0.0000000E+000	0.0000000E+000	0.0000000E+000	12.5759	4.48259	77.4241	-2.50524e-06	-9.60959e-07	-1.63015e-09	-9.59328e-07	0.219598	50353.2	85.4182	50267.8
6.81719	19.8845	3.29872	20.1563	-9.41923	13.1345	0.219982	-0.00330613	7077.32	189.556	1	11	0.00480993	0.000238632	0	5.74874e-05	0.000163304	1.72162e-05	2.21571	0.0721456	0.0720916	-0.00278928	-9.37802	20.227	19.9566	3.29593	0.0489434	0.0081194	0.0496123	9.41923	189557	1.14264e+06	1.15825e+06	-80.5808	0.0000000E+000	0.0000000E+000	0.0000000E+000	80.5808	0.0000000E+000	0.0000000E+000	0.0000000E+000	-80.5808	0.0000000E+000	0.0000000E+000	0.0000000E+000	-9.41923	0.0000000E+000	0.0000000E+000	0.0000000E+000	9.41923	6.02795	80.5808	1.87431e-06	-7.27289e-07	-5.39905e-10	-7.26749e-07	0.219819	66537.6	49.3944	66488.2
4.63925	20.431	2.56997	20.592	-7.16945	13.6184	0.219976	-0.00363272	13348.9	207.923	1	11	0.00481589	0.000233872	0	5.69472e-05	0.000315923	1.26553e-05	-13.0609	0.0541123	0.0527124	0.0122287	-7.18487	20.6458	20.4837	2.5822	0.0481828	0.00606081	0.0485625	7.16945	207923	1.65297e+06	1.66599e+06	-82.8306	0.0000000E+000	0.0000000E+000	0.0000000E+000	82.8306	0.0000000E+000	0.0000000E+000	0.0000000E+000	-82.8306	0.0000000E+000	0.0000000E+000	0.0000000E+000	-7.16945	0.0000000E+000	0.0000000E+000	0.0000000E+000	7.16945	7.9499	82.8306	-5.40184e-07	-7.99109e-07	-1.14766e-09	-7.97962e-07	0.21966	60554	86.966	60467.1
3.1604	20.6886	2.06267	20.7912	-5.6936	14.3114	0.219984	-0.00267995	24414.6	240.297	1	11	0.00480105	0.000230918	0	5.32428e-05	0.000258691	8.04241e-06	40.9106	0.0348281	0.0263207	-0.0228082	-5.62394	20.8151	20.715	2.03986	0.04786	0.00477166	0.0480973	5.6936	240297	2.41019e+06	2.42214e+06	-84.3064	0.0000000E+000	0.0000000E+000	0.0000000E+000	84.3064	0.0000000E+000	0.0000000E+000	0.0000000E+000	-84.3064	0.0000000E+000	0.0000000E+000	0.0000000E+000	-5.6936	0.0000000E+000	0.0000000E+000	0.0000000E+000	5.6936	10.03	84.3064	-3.70436e-06	-5.89547e-07	-6.93279e-10	-5.88854e-07	0.219725	82085	96.5281	81988.5
2.15577	21.0113	1.65986	21.0768	-4.5169	15.3151	0.21998	-0.00241807	44478.1	275.855	1	11	0.00481008	0.000228217	0	5.04711e-05	-4.65461e-05	9.45602e-06	-96.3028	0.0414344	-0.00454879	0.0411839	-4.62949	21.0755	21.0068	1.70105	0.0472982	0.00373648	0.0474455	4.5169	275855	3.49191e+06	3.50279e+06	-85.4831	0.0000000E+000	0.0000000E+000	0.0000000E+000	85.4831	0.0000000E+000	0.0000000E+000	0.0000000E+000	-85.4831	0.0000000E+000	0.0000000E+000	0.0000000E+000	-4.5169	0.0000000E+000	0.0000000E+000	0.0000000E+000	4.5169	12.6585	85.4831	-2.77173e-06	-5.31927e-07	1.12552e-10	-5.32039e-07	0.220026	90973.4	19.2493	90992.6
1.46631	21.2265	1.44484	21.2756	-3.89399	16.7746	0.219988	-0.00236006	75123.2	346.457	1	11	0.00480702	0.00022594	0	5.18079e-05	0.000392232	3.56456e-06	-37.1656	0.0157766	0.0125722	0.00953094	-3.91728	21.2888	21.2391	1.45437	0.0468936	0.00319194	0.0470021	3.89399	346457	5.08988e+06	5.10166e+06	-86.106	0.0000000E+000	0.0000000E+000	0.0000000E+000	86.106	0.0000000E+000	0.0000000E+000	0.0000000E+000	-86.106	0.0000000E+000	0.0000000E+000	0.0000000E+000	-3.89399	0.0000000E+000	0.0000000E+000	0.0000000E+000	3.89399	14.6913	86.106	1.33677e-06	-5.19185e-07	-9.25692e-10	-5.18259e-07	0.219595	93212.6	166.196	93046.4
1.00006	21.4101	1.30806	21.45	-3.49617	19.951	0.219989	-0.00293041	121665	452.444	1	12	0.00480779	0.000224139	0	5.72854e-05	0.000430387	3.62913e-06	39.2733	0.0161914	0.0125343	-0.0102495	-3.46681	21.4619	21.4226	1.29781	0.0465332	0.00284297	0.04662	3.49617	452443	7.40552e+06	7.41933e+06	-86.5038	0.0000000E+000	0.0000000E+000	0.0000000E+000	86.5038	0.0000000E+000	0.0000000E+000	0.0000000E+000	-86.5038	0.0000000E+000	0.0000000E+000	0.0000000E+000	-3.49617	0.0000000E+000	0.0000000E+000	0.0000000E+000	3.49617	16.3678	86.5038	5.47753e-06	-6.44657e-07	-1.26121e-09	-6.43396e-07	0.219559	75071.2	146.869	74924.4
0.681362	21.6028	1.23419	21.638	-3.26982	23.0631	0.219988	-0.00237026	189261	615.73	1	12	0.00480927	0.00022226	0	6.23915e-05	1.06858e-05	1.34881e-06	-97.3167	0.00606861	-0.000772859	0.00601919	-3.28585	21.6376	21.602	1.24021	0.0461398	0.00263602	0.046215	3.26982	615729	1.07775e+07	1.07951e+07	-86.7302	0.0000000E+000	0.0000000E+000	0.0000000E+000	86.7302	0.0000000E+000	0.0000000E+000	0.0000000E+000	-86.7302	0.0000000E+000	0.0000000E+000	0.0000000E+000	-3.26982	0.0000000E+000	0.0000000E+000	0.0000000E+000	3.26982	17.5036	86.7302	5.10608e-06	-5.21429e-07	-2.53281e-11	-5.21404e-07	0.219978	92812	4.50829	92807.5
0.464091	21.7987	1.2718	21.8358	-3.33901	27.6197	0.219983	-0.00162154	269649	914.74	1	12	0.00480762	0.000220171	0	6.08994e-05	1.06858e-05	5.52019e-07	94.5348	0.00250722	-0.000198232	-0.00249937	-3.3325	21.8355	21.7986	1.2693	0.0457186	0.00266735	0.0457963	3.33901	914739	1.56787e+07	1.57054e+07	-86.661	0.0000000E+000	0.0000000E+000	0.0000000E+000	86.661	0.0000000E+000	0.0000000E+000	0.0000000E+000	-86.661	0.0000000E+000	0.0000000E+000	0.0000000E+000	-3.33901	0.0000000E+000	0.0000000E+000	0.0000000E+000	3.33901	17.1401	86.661	-1.49206e-06	-3.56711e-07	-1.73275e-11	-3.56693e-07	0.219972	135663	6.58991	135656
0.316193	21.9918	1.40762	22.0368	-3.66232	34.2947	0.219985	-0.000901465	357587	1459.01	1	12	0.00480646	0.000218111	0	4.64565e-05	0.000144227	3.73361e-06	12.9421	0.0171179	0.0166831	-0.00383384	-3.64961	22.0532	22.0085	1.40379	0.045286	0.00289861	0.0453786	3.66232	1.459e+06	2.27946e+07	2.28412e+07	-86.3377	0.0000000E+000	0.0000000E+000	0.0000000E+000	86.3377	0.0000000E+000	0.0000000E+000	0.0000000E+000	-86.3377	0.0000000E+000	0.0000000E+000	0.0000000E+000	-3.66232	0.0000000E+000	0.0000000E+000	0.0000000E+000	3.66232	15.6234	86.3377	-1.44429e-05	-1.98309e-07	-1.30016e-10	-1.98179e-07	0.219841	244030	159.992	243870
0.215268	22.2067	1.62133	22.2658	-4.17581	44.087	0.21999	-0.000635777	456004	2417.89	1	12	0.00480976	0.000216015	0	1.65057e-05	-0.000199165	2.98046e-06	18.8775	0.0137974	0.0130553	-0.00446409	-4.16192	22.2785	22.2198	1.61687	0.0447927	0.00327036	0.0449119	4.17581	2.41789e+06	3.31168e+07	3.32049e+07	-85.8242	0.0000000E+000	0.0000000E+000	0.0000000E+000	85.8242	0.0000000E+000	0.0000000E+000	0.0000000E+000	-85.8242	0.0000000E+000	0.0000000E+000	0.0000000E+000	-4.17581	0.0000000E+000	0.0000000E+000	0.0000000E+000	4.17581	13.6966	85.8242	-2.99509e-05	-1.39864e-07	1.26624e-10	-1.39991e-07	0.220189	346017	313.262	346330
0.146929	22.4873	1.93556	22.5705	-4.91951	58.4255	0.219991	-0.00123486	559638	4115.65	1	12	0.00480955	0.000213091	0	-2.38147e-05	0.000296845	3.01703e-06	-7.29343	0.0141584	0.0140439	0.00179743	-4.921	22.5846	22.5014	1.93735	0.0441425	0.00379949	0.0443057	4.91951	4.11565e+06	4.78156e+07	4.79924e+07	-85.0805	0.0000000E+000	0.0000000E+000	0.0000000E+000	85.0805	0.0000000E+000	0.0000000E+000	0.0000000E+000	-85.0805	0.0000000E+000	0.0000000E+000	0.0000000E+000	-4.91951	0.0000000E+000	0.0000000E+000	0.0000000E+000	4.91951	11.618	85.0805	-4.03204e-05	-2.71657e-07	-3.66561e-10	-2.71291e-07	0.219694	178151	240.389	177911
0.0999041	22.8744	2.4476	23.005	-6.10752	79.5027	0.219984	-0.00226849	650872	7367.76	1	12	0.00481063	0.000209113	0	-5.76923e-05	0.000163304	2.67928e-06	0.120949	0.0128126	0.0128126	-2.70469e-05	-6.10406	23.0177	22.8872	2.44758	0.0432222	0.00462486	0.0434689	6.10752	7.36775e+06	6.88562e+07	6.92493e+07	-83.8925	0.0000000E+000	0.0000000E+000	0.0000000E+000	83.8925	0.0000000E+000	0.0000000E+000	0.0000000E+000	-83.8925	0.0000000E+000	0.0000000E+000	0.0000000E+000	-6.10752	0.0000000E+000	0.0000000E+000	0.0000000E+000	6.10752	9.34562	83.8925	-3.38775e-05	-4.99032e-07	-3.70454e-10	-4.98662e-07	0.219821	96974.1	71.9882	96902.1
0.0680626	23.3191	3.17056	23.5336	-7.74269	110.429	0.219985	-0.00260093	737524	13386.6	1	12	0.00481322	0.000204525	0	-6.24952e-05	0.000373155	1.83621e-06	-5.38455	0.0089779	0.00893828	0.000842485	-7.74179	23.5426	23.328	3.1714	0.042105	0.00572477	0.0424924	7.74269	1.33866e+07	9.84566e+07	9.93625e+07	-82.2573	0.0000000E+000	0.0000000E+000	0.0000000E+000	82.2573	0.0000000E+000	0.0000000E+000	0.0000000E+000	-82.2573	0.0000000E+000	0.0000000E+000	0.0000000E+000	-7.74269	0.0000000E+000	0.0000000E+000	0.0000000E+000	7.74269	7.35488	82.2573	-4.80297e-06	-5.72165e-07	-9.7055e-10	-5.71195e-07	0.219612	84579.2	143.47	84435.7
0.0464052	23.8026	4.05304	24.1453	-9.66345	155.78	0.219983	-0.00180711	846200	23843.5	1	12	0.00481217	0.000199301	0	9.60861e-06	0.000144227	2.6794e-06	26.7805	0.013444	0.012002	-0.00605751	-9.64451	24.1561	23.8146	4.04698	0.0408284	0.00695211	0.041416	9.66345	2.38435e+07	1.40028e+08	1.42044e+08	-80.3365	0.0000000E+000	0.0000000E+000	0.0000000E+000	80.3365	0.0000000E+000	0.0000000E+000	0.0000000E+000	-80.3365	0.0000000E+000	0.0000000E+000	0.0000000E+000	-9.66345	0.0000000E+000	0.0000000E+000	0.0000000E+000	9.66345	5.8728	80.3365	7.21039e-05	-3.97532e-07	-2.60634e-10	-3.97272e-07	0.219838	121732	79.811	121652
0.0315922	24.4981	5.12898	25.0292	-11.8248	222.385	0.219986	-0.000436749	982220	41245.5	1	12	0.0048098	0.000192167	0	0.000172553	1.06858e-05	3.24875e-06	-30.7068	0.0169058	0.0145355	0.00863289	-11.8373	25.0452	24.5126	5.13762	0.0391054	0.00818722	0.0399533	11.8248	4.12455e+07	1.97005e+08	2.01276e+08	-78.1752	0.0000000E+000	0.0000000E+000	0.0000000E+000	78.1752	0.0000000E+000	0.0000000E+000	0.0000000E+000	-78.1752	0.0000000E+000	0.0000000E+000	0.0000000E+000	-11.8248	0.0000000E+000	0.0000000E+000	0.0000000E+000	11.8248	4.7764	78.1752	0.000162945	-9.60788e-08	-4.66702e-12	-9.60742e-08	0.219976	503690	24.4667	503665
0.0215268	25.544	6.62105	26.3882	-14.5313	320.124	0.219984	0.00103946	1.11664e+06	70298.9	1	12	0.00480808	0.000182206	0	0.000378359	-4.65461e-05	3.34995e-06	3.02889	0.0183855	0.0183598	-0.000971481	-14.5193	26.4057	25.5624	6.62008	0.0366835	0.0095084	0.0378957	14.5313	7.02989e+07	2.71214e+08	2.80176e+08	-75.4687	0.0000000E+000	0.0000000E+000	0.0000000E+000	75.4687	0.0000000E+000	0.0000000E+000	0.0000000E+000	-75.4687	0.0000000E+000	0.0000000E+000	0.0000000E+000	-14.5313	0.0000000E+000	0.0000000E+000	0.0000000E+000	14.5313	3.85801	75.4687	0.000205805	2.28665e-07	-4.8383e-11	2.28714e-07	0.22003	211632	44.779	211677
0.0146812	26.7974	8.72472	28.1819	-18.0342	463.425	0.219979	0.00237946	1.24253e+06	119088	1	12	0.00480873	0.000170632	0	0.000508104	0.000144227	9.71665e-07	-34.3615	0.00569452	0.00470079	0.00321406	-18.0375	28.1874	26.8021	8.72793	0.0337405	0.0109852	0.0354837	18.0342	1.19088e+08	3.65772e+08	3.8467e+08	-71.9658	0.0000000E+000	0.0000000E+000	0.0000000E+000	71.9658	0.0000000E+000	0.0000000E+000	0.0000000E+000	-71.9658	0.0000000E+000	0.0000000E+000	0.0000000E+000	-18.0342	0.0000000E+000	0.0000000E+000	0.0000000E+000	18.0342	3.07144	71.9658	0.000129746	5.23429e-07	3.43182e-10	5.23086e-07	0.219834	92449.1	60.6134	92388.5
0.0100092	28.2766	11.3	30.4508	-21.7829	673.607	0.219985	0.00321012	1.40716e+06	193777	1	12	0.00480909	0.00015793	0	0.000429693	1.06858e-05	3.08133e-06	-12.5639	0.0195108	0.0190436	0.00424414	-21.777	30.4701	28.2956	11.3043	0.0304949	0.0121865	0.0328398	21.7829	1.93777e+08	4.84897e+08	5.22183e+08	-68.2171	0.0000000E+000	0.0000000E+000	0.0000000E+000	68.2171	0.0000000E+000	0.0000000E+000	0.0000000E+000	-68.2171	0.0000000E+000	0.0000000E+000	0.0000000E+000	-21.7829	0.0000000E+000	0.0000000E+000	0.0000000E+000	21.7829	2.50234	68.2171	-7.84108e-05	7.06177e-07	3.43027e-11	7.06142e-07	0.219974	68528.6	3.32879	68525.3