File: txt/19499_R316_UA715_SOC00_C01.mpt
EC-Lab ASCII FILE
Nb header lines : 65

Potentio Electrochemical Impedance Spectroscopy

Run on channel : 1 (SN 66354)
User :
CE vs. WE compliance from -10 V to 10 V
Electrode connection : standard
Potential control : Ewe
Ewe ctrl range : min = -10.00 V, max = 10.00 V
Safety Limits :
	Do not start on E overload
Acquisition started on : 12/04/2025 15:14:18.077
Technique started on : 12/04/2025 15:14:19.989
Loaded Setting File :  C:\Users\Celltest\OneDrive - store-dot.com\Documents\EC-Lab\Data\@Biologic Test Protocols\anode half cell EIS SOC00.mps
Saved on :
	File : 19499_R316_UA715_SOC00_C01.mpr
	Directory : C:\Users\Celltest\OneDrive - store-dot.com\Documents\EC-Lab\Data\Charmaine\
	Host : 169.254.61.224
Device : VMP-3e (SN .003165)
Address : USB
EC-LAB for windows v11.62 (software)
Internet server v27.00 (firmware)
Command interpretor v12.03 (firmware)
Electrode material :
Initial state :
Electrolyte :
Comments :
Electrode surface area : 0.001 cm²
Characteristic mass : 0.001 g
Equivalent Weight : 0.000 g/eq.
Density : 0.000 g/cm3
Volume (V) : 0.001 cm³
Record Ece
Cycle Definition : Charge/Discharge alternance
Mode                Single sine
E (V)               0.0000
vs.                 Eoc
tE (h:m:s)          0:00:0.0000
record              0
dI                  0.000
unit dI             mA
dt (s)              0.000
fi                  100.000
unit fi             kHz
ff                  10.000
unit ff             mHz
Nd                  6
Points              per decade
spacing             Logarithmic
Va (mV)             5.0
pw                  0.10
Na                  2
corr                0
E range min (V)     -10.000
E range max (V)     10.000
I Range             Auto
Bandwidth           5
nc cycles           0
goto Ns'            0
nr cycles           0
inc. cycle          0

freq/Hz	Re(Z)/Ohm	-Im(Z)/Ohm	|Z|/Ohm	Phase(Z)/deg	time/s	<Ewe>/V	<I>/mA	Cs/µF	Cp/µF	cycle number	I Range	|Ewe|/V	|I|/A	Ns	(Q-Qo)/mA.h	<Ece>/V	|Ece|/V	Phase(Zce)/deg	|Zce|/Ohm	Re(Zce)/Ohm	-Im(Zce)/Ohm	Phase(Zwe-ce)/deg	|Zwe-ce|/Ohm	Re(Zwe-ce)/Ohm	-Im(Zwe-ce)/Ohm	Re(Y)/Ohm-1	Im(Y)/Ohm-1	|Y|/Ohm-1	Phase(Y)/deg	Re(C)/nF	Im(C)/nF	|C|/nF	Phase(C)/deg	Re(M)	Im(M)	|M|	Phase(M)/deg	Re(Permittivity)	Im(Permittivity)	|Permittivity|	Phase(Permittivity)/deg	Re(Resistivity)/Ohm.cm	Im(Resistivity)/Ohm.cm	|Resistivity|/Ohm.cm	Phase(Resistivity)/deg	Re(Conductivity)/mS/cm	Im(Conductivity)/mS/cm	|Conductivity|/mS/cm	Phase(Conductivity)/deg	Tan(Delta)	Loss Angle(Delta)/deg	dq/mA.h	Pwe/W	Pce/W	Pwe-ce/W	<Ewe-Ece>/V	Rwe/Ohm	Rce/Ohm	Rwe-ce/Ohm		Ewe-Ece/V
100004	1.29263	0.434915	1.36383	-18.596	1.91153	0.270794	0.0795707	3.65931	0.372125	1	9	0.00464878	0.00340862	0	9.28858e-06	-8.47007e-05	3.81987e-05	93.1156	0.0112065	-0.000609085	-0.0111899	-18.1573	1.35972	1.29202	0.423725	0.694948	0.233822	0.733229	18.596	372.125	1106	1166.93	-71.404	0.0000000E+000	0.0000000E+000	0.0000000E+000	71.404	0.0000000E+000	0.0000000E+000	0.0000000E+000	-71.404	0.0000000E+000	0.0000000E+000	0.0000000E+000	-18.596	0.0000000E+000	0.0000000E+000	0.0000000E+000	18.596	2.97213	71.404	9.28858e-06	2.15473e-05	-6.7397e-09	2.1554e-05	0.270879	3403.19	1.06447	3404.26
68132	1.40052	0.493214	1.48483	-19.4005	2.41855	0.270796	0.0850844	4.73624	0.522579	1	9	0.00505275	0.00340292	0	1.86598e-05	4.88404e-05	3.9304e-05	76.6241	0.0115501	0.00267198	-0.0112368	-18.9569	1.48366	1.40319	0.481977	0.635238	0.223709	0.673479	19.4005	522.579	1483.9	1573.23	-70.5995	0.0000000E+000	0.0000000E+000	0.0000000E+000	70.5995	0.0000000E+000	0.0000000E+000	0.0000000E+000	-70.5995	0.0000000E+000	0.0000000E+000	0.0000000E+000	-19.4005	0.0000000E+000	0.0000000E+000	0.0000000E+000	19.4005	2.83958	70.5995	9.37121e-06	2.30405e-05	4.15556e-09	2.30363e-05	0.270747	3182.67	0.574024	3182.1
46420.4	1.52819	0.542943	1.62178	-19.5594	2.92756	0.270799	0.0726041	6.31476	0.707757	1	9	0.00510173	0.00314576	0	3.06674e-05	0.000106072	2.26884e-05	64.197	0.00721237	0.00313939	-0.00649327	-19.3062	1.62258	1.53133	0.53645	0.581026	0.20643	0.616608	19.5594	707.757	1992.08	2114.08	-70.4407	0.0000000E+000	0.0000000E+000	0.0000000E+000	70.4407	0.0000000E+000	0.0000000E+000	0.0000000E+000	-70.4407	0.0000000E+000	0.0000000E+000	0.0000000E+000	-19.5594	0.0000000E+000	0.0000000E+000	0.0000000E+000	19.5594	2.81464	70.4407	1.20076e-05	1.96611e-05	7.70129e-09	1.96534e-05	0.270693	3729.8	1.46097	3728.34
31621.1	1.66224	0.606567	1.76945	-20.0475	3.43454	0.27081	0.082253	8.29782	0.975087	1	9	0.00506813	0.00286424	0	4.06578e-05	0.000144227	1.7039e-05	51.5234	0.00594887	0.00370136	-0.00465714	-19.8649	1.77134	1.66594	0.60191	0.530904	0.193732	0.565147	20.0475	975.087	2672.13	2844.49	-69.9525	0.0000000E+000	0.0000000E+000	0.0000000E+000	69.9525	0.0000000E+000	0.0000000E+000	0.0000000E+000	-69.9525	0.0000000E+000	0.0000000E+000	0.0000000E+000	-20.0475	0.0000000E+000	0.0000000E+000	0.0000000E+000	20.0475	2.74041	69.9525	9.99041e-06	2.22749e-05	1.18631e-08	2.22631e-05	0.270666	3292.4	1.75345	3290.65
21544.7	1.81177	0.668333	1.93111	-20.2482	3.81953	0.27081	0.0721943	11.0532	1.32391	1	9	0.00516612	0.0026752	0	4.20218e-05	0.000392232	2.77801e-05	26.5988	0.0103843	0.00928525	-0.00464947	-20.0242	1.93823	1.82106	0.663684	0.485835	0.179216	0.517836	20.2482	1323.91	3588.96	3825.36	-69.7518	0.0000000E+000	0.0000000E+000	0.0000000E+000	69.7518	0.0000000E+000	0.0000000E+000	0.0000000E+000	-69.7518	0.0000000E+000	0.0000000E+000	0.0000000E+000	-20.2482	0.0000000E+000	0.0000000E+000	0.0000000E+000	20.2482	2.71088	69.7518	1.36399e-06	1.9551e-05	2.83169e-08	1.95226e-05	0.270418	3751.13	5.433	3745.7
14678.6	1.97276	0.733313	2.10464	-20.3911	4.07855	0.270807	0.0741316	14.7858	1.79502	1	9	0.00463806	0.00220373	0	4.67225e-05	0.000220536	9.0571e-06	-69.1216	0.0041099	0.00146471	0.00384004	-20.4751	2.10735	1.97422	0.737153	0.445366	0.165551	0.47514	20.3911	1795.02	4828.95	5151.78	-69.6089	0.0000000E+000	0.0000000E+000	0.0000000E+000	69.6089	0.0000000E+000	0.0000000E+000	0.0000000E+000	-69.6089	0.0000000E+000	0.0000000E+000	0.0000000E+000	-20.3911	0.0000000E+000	0.0000000E+000	0.0000000E+000	20.3911	2.6902	69.6089	4.70068e-06	2.00754e-05	1.63487e-08	2.0059e-05	0.270587	3653.06	2.97493	3650.09
10002.2	2.13734	0.809445	2.28548	-20.7425	4.46153	0.270808	0.0809864	19.6579	2.46579	1	9	0.0049448	0.00216357	0	5.55604e-05	-8.3915e-06	7.05712e-06	-109.541	0.00326179	-0.00109101	0.00307392	-20.8242	2.28555	2.13625	0.812519	0.409184	0.154965	0.437545	20.7425	2465.79	6510.92	6962.2	-69.2575	0.0000000E+000	0.0000000E+000	0.0000000E+000	69.2575	0.0000000E+000	0.0000000E+000	0.0000000E+000	-69.2575	0.0000000E+000	0.0000000E+000	0.0000000E+000	-20.7425	0.0000000E+000	0.0000000E+000	0.0000000E+000	20.7425	2.6405	69.2575	8.83792e-06	2.19317e-05	-6.79597e-10	2.19324e-05	0.270816	3343.87	0.103616	3343.97
6810.42	2.37829	0.935472	2.55565	-21.4716	4.72052	0.270809	0.0801295	24.9813	3.34714	1	9	0.00488148	0.00191007	0	6.27094e-05	0.000106072	0.000195076	-33.7149	0.10213	0.0849529	0.0566884	-21.9389	2.65555	2.46324	0.99216	0.364134	0.143228	0.39129	21.4716	3347.14	8509.56	9144.18	-68.5284	0.0000000E+000	0.0000000E+000	0.0000000E+000	68.5284	0.0000000E+000	0.0000000E+000	0.0000000E+000	-68.5284	0.0000000E+000	0.0000000E+000	0.0000000E+000	-21.4716	0.0000000E+000	0.0000000E+000	0.0000000E+000	21.4716	2.54234	68.5284	7.14901e-06	2.16998e-05	8.49952e-09	2.16913e-05	0.270703	3379.64	1.32376	3378.32
4646	2.51285	0.996198	2.70312	-21.6254	4.98759	0.27078	0.0581867	34.3871	4.67043	1	9	0.00461398	0.00170691	0	6.74165e-05	-0.000122855	4.72943e-06	7.24192	0.00277075	0.00274865	-0.000349278	-21.5971	2.70554	2.5156	0.995849	0.343904	0.136338	0.369943	21.6254	4670.43	11780.9	12672.9	-68.3746	0.0000000E+000	0.0000000E+000	0.0000000E+000	68.3746	0.0000000E+000	0.0000000E+000	0.0000000E+000	-68.3746	0.0000000E+000	0.0000000E+000	0.0000000E+000	-21.6254	0.0000000E+000	0.0000000E+000	0.0000000E+000	21.6254	2.52244	68.3746	4.70709e-06	1.57558e-05	-7.14855e-09	1.5763e-05	0.270903	4653.65	2.1114	4655.76
3163.08	2.72997	1.1434	2.95975	-22.7256	5.36165	0.270614	0.0345302	44.0059	6.56749	1	9	0.00454036	0.00153403	0	7.21511e-05	-6.56234e-05	7.47162e-06	-117.62	0.00487057	-0.00225804	0.00431552	-22.8195	2.95934	2.72771	1.14772	0.311636	0.130524	0.337866	22.7256	6567.49	15680.4	17000.2	-67.2744	0.0000000E+000	0.0000000E+000	0.0000000E+000	67.2744	0.0000000E+000	0.0000000E+000	0.0000000E+000	-67.2744	0.0000000E+000	0.0000000E+000	0.0000000E+000	-22.7256	0.0000000E+000	0.0000000E+000	0.0000000E+000	22.7256	2.38758	67.2744	4.73457e-06	9.34435e-06	-2.26599e-09	9.34662e-06	0.27068	7837.03	1.90047	7838.93
2155.69	2.96629	1.32256	3.24777	-24.0303	6.02677	0.270733	0.105388	55.8238	9.25713	1	9	0.00487408	0.00150075	0	9.12357e-05	-0.000199165	4.02062e-06	0.121205	0.00267908	0.00267907	-5.66739e-06	-24.011	3.25022	2.96897	1.32255	0.281217	0.125384	0.307903	24.0303	9257.13	20762.3	22732.5	-65.9697	0.0000000E+000	0.0000000E+000	0.0000000E+000	65.9697	0.0000000E+000	0.0000000E+000	0.0000000E+000	-65.9697	0.0000000E+000	0.0000000E+000	0.0000000E+000	-24.0303	0.0000000E+000	0.0000000E+000	0.0000000E+000	24.0303	2.24285	65.9697	1.90846e-05	2.8532e-05	-2.09895e-08	2.8553e-05	0.270932	2568.92	1.88982	2570.81
1468.59	3.21942	1.55315	3.57449	-25.7542	6.72408	0.270725	-0.0166487	69.7759	13.1737	1	10	0.00498642	0.001395	0	9.73457e-05	0.000220536	7.65505e-06	-23.3978	0.00548748	0.00503624	0.00217915	-25.7506	3.57997	3.22446	1.55533	0.251971	0.121559	0.279761	25.7542	13173.7	27306.8	30318.4	-64.2458	0.0000000E+000	0.0000000E+000	0.0000000E+000	64.2458	0.0000000E+000	0.0000000E+000	0.0000000E+000	-64.2458	0.0000000E+000	0.0000000E+000	0.0000000E+000	-25.7542	0.0000000E+000	0.0000000E+000	0.0000000E+000	25.7542	2.07283	64.2458	6.11004e-06	-4.50721e-06	-3.67163e-09	-4.50354e-06	0.270504	16261.1	13.2465	16247.8
1000.32	3.4904	1.86713	3.95842	-28.1438	7.17481	0.270725	-0.0167195	85.2132	18.9589	1	10	0.0049394	0.00124782	0	9.56156e-05	0.000373155	9.75204e-06	-16.8701	0.00781525	0.00747892	0.00226801	-28.1217	3.96608	3.49788	1.8694	0.222757	0.11916	0.252626	28.1438	18958.9	35441.6	40193.9	-61.8562	0.0000000E+000	0.0000000E+000	0.0000000E+000	61.8562	0.0000000E+000	0.0000000E+000	0.0000000E+000	-61.8562	0.0000000E+000	0.0000000E+000	0.0000000E+000	-28.1438	0.0000000E+000	0.0000000E+000	0.0000000E+000	28.1438	1.86939	61.8562	-1.73011e-06	-4.52639e-06	-6.23895e-09	-4.52015e-06	0.270352	16192.2	22.3185	16169.9
681.09	3.78394	2.32014	4.43861	-31.5147	7.6246	0.270724	-0.0158287	100.717	27.5192	1	10	0.00489848	0.00110361	0	9.28056e-05	0.000144227	1.2376e-05	-55.5731	0.0112141	0.00633994	0.00924993	-31.5736	4.44885	3.79028	2.32939	0.192066	0.117766	0.225296	31.5147	27519.2	44881.4	52646.5	-58.4853	0.0000000E+000	0.0000000E+000	0.0000000E+000	58.4853	0.0000000E+000	0.0000000E+000	0.0000000E+000	-58.4853	0.0000000E+000	0.0000000E+000	0.0000000E+000	-31.5147	0.0000000E+000	0.0000000E+000	0.0000000E+000	31.5147	1.63091	58.4853	-2.81006e-06	-4.28523e-06	-2.28293e-09	-4.28294e-06	0.27058	17103.3	9.11171	17094.2
463.961	4.15252	2.93752	5.0865	-35.2758	8.07632	0.270724	-0.0162723	116.777	38.9477	1	10	0.00486923	0.000957284	0	9.14844e-05	0.000411309	7.397e-06	-2.55463	0.00772707	0.00771939	0.00034441	-35.2288	5.093	4.16024	2.93786	0.1605	0.113538	0.196599	35.2758	38947.7	55057.1	67440.4	-54.7242	0.0000000E+000	0.0000000E+000	0.0000000E+000	54.7242	0.0000000E+000	0.0000000E+000	0.0000000E+000	-54.7242	0.0000000E+000	0.0000000E+000	0.0000000E+000	-35.2758	0.0000000E+000	0.0000000E+000	0.0000000E+000	35.2758	1.41362	54.7242	-1.32115e-06	-4.40528e-06	-6.69293e-09	-4.39859e-06	0.270312	16637.1	25.2767	16611.9
316.316	4.65471	3.79404	6.00509	-39.1834	8.52401	0.270719	-0.0159443	132.616	52.9374	1	10	0.00483915	0.000805842	0	8.89417e-05	-2.74688e-05	3.99242e-06	34.8867	0.00495435	0.00406398	-0.00283367	-39.1379	6.00645	4.65878	3.79121	0.129078	0.105211	0.166525	39.1834	52937.4	64946.1	83787.6	-50.8166	0.0000000E+000	0.0000000E+000	0.0000000E+000	50.8166	0.0000000E+000	0.0000000E+000	0.0000000E+000	-50.8166	0.0000000E+000	0.0000000E+000	0.0000000E+000	-39.1834	0.0000000E+000	0.0000000E+000	0.0000000E+000	39.1834	1.22685	50.8166	-2.5427e-06	-4.31642e-06	4.37971e-10	-4.31686e-06	0.270746	16979	1.7228	16980.8
215.345	5.42007	4.9201	7.32015	-42.2318	8.97357	0.270721	-0.0157244	150.215	67.8611	1	10	0.0048279	0.000659535	0	8.68807e-05	-0.000122855	1.20585e-05	60.3939	0.0182833	0.0090326	-0.0158963	-42.0921	7.31617	5.4291	4.90421	0.10115	0.0918195	0.136609	42.2318	67861.1	74756.9	100964	-47.7682	0.0000000E+000	0.0000000E+000	0.0000000E+000	47.7682	0.0000000E+000	0.0000000E+000	0.0000000E+000	-47.7682	0.0000000E+000	0.0000000E+000	0.0000000E+000	-42.2318	0.0000000E+000	0.0000000E+000	0.0000000E+000	42.2318	1.10162	47.7682	-2.06105e-06	-4.25692e-06	1.93183e-09	-4.25885e-06	0.270843	17216.6	7.81304	17224.4
146.737	6.56237	6.36439	9.14167	-44.1226	9.41951	0.27071	-0.0176438	170.421	82.6009	1	10	0.00482694	0.000528015	0	8.46785e-05	2.97631e-05	3.98496e-06	83.01	0.00754706	0.000918447	-0.00749096	-44.0848	9.13712	6.56329	6.3569	0.0785253	0.0761563	0.109389	44.1226	82601	85170.4	118646	-45.8774	0.0000000E+000	0.0000000E+000	0.0000000E+000	45.8774	0.0000000E+000	0.0000000E+000	0.0000000E+000	-45.8774	0.0000000E+000	0.0000000E+000	0.0000000E+000	-44.1226	0.0000000E+000	0.0000000E+000	0.0000000E+000	44.1226	1.03111	45.8774	-2.20218e-06	-4.77635e-06	-5.25134e-10	-4.77583e-06	0.27068	15343.1	1.68689	15341.4
100.032	8.2668	7.97353	11.4855	-43.9655	9.87079	0.270709	-0.0166971	199.54	96.168	1	10	0.00481034	0.000418818	0	8.30177e-05	0.000392232	8.72483e-06	-53.6001	0.020832	0.0123621	0.0167676	-43.9828	11.5061	8.27916	7.9903	0.0626666	0.0604435	0.0870661	43.9655	96168	99705	138526	-46.0345	0.0000000E+000	0.0000000E+000	0.0000000E+000	46.0345	0.0000000E+000	0.0000000E+000	0.0000000E+000	-46.0345	0.0000000E+000	0.0000000E+000	0.0000000E+000	-43.9655	0.0000000E+000	0.0000000E+000	0.0000000E+000	43.9655	1.03678	46.0345	-1.66078e-06	-4.52006e-06	-6.54915e-09	-4.51351e-06	0.270316	16212.9	23.491	16189.4
68.104	10.7675	9.53583	14.383	-41.5284	10.3334	0.270722	-0.0133466	245.069	107.722	1	10	0.00480483	0.000334062	0	8.15513e-05	0.00012515	9.96939e-06	-34.7597	0.0298429	0.0245174	0.0170145	-41.5144	14.4127	10.7921	9.55284	0.0520493	0.0460953	0.0695263	41.5284	107722	121636	162479	-48.4716	0.0000000E+000	0.0000000E+000	0.0000000E+000	48.4716	0.0000000E+000	0.0000000E+000	0.0000000E+000	-48.4716	0.0000000E+000	0.0000000E+000	0.0000000E+000	-41.5284	0.0000000E+000	0.0000000E+000	0.0000000E+000	41.5284	1.12917	48.4716	-1.46644e-06	-3.61322e-06	-1.67033e-09	-3.61155e-06	0.270597	20283.9	9.37687	20274.5
46.4415	13.9524	10.647	17.5507	-37.3469	10.7697	0.270708	-0.0188401	321.875	118.454	1	10	0.00480661	0.000273869	0	7.94621e-05	0.000144227	7.26399e-06	28.8244	0.0265236	0.0232374	-0.0127877	-37.2677	17.5615	13.9757	10.6342	0.0452959	0.0345649	0.0569776	37.3469	118454	155229	195262	-52.6531	0.0000000E+000	0.0000000E+000	0.0000000E+000	52.6531	0.0000000E+000	0.0000000E+000	0.0000000E+000	-52.6531	0.0000000E+000	0.0000000E+000	0.0000000E+000	-37.3469	0.0000000E+000	0.0000000E+000	0.0000000E+000	37.3469	1.31046	52.6531	-2.08916e-06	-5.10018e-06	-2.71726e-09	-5.09747e-06	0.270564	14368.7	7.6553	14361.1
31.6296	17.7089	11.0087	20.8518	-31.8669	11.4346	0.270763	-0.00674181	457.081	127.402	1	11	0.00481298	0.000230818	0	7.74506e-05	8.6995e-05	8.38752e-06	6.11728	0.0363382	0.0361313	-0.00387234	-31.8055	20.8804	17.7451	11.0048	0.0407292	0.0253191	0.0479575	31.8669	127402	204943	241315	-58.1331	0.0000000E+000	0.0000000E+000	0.0000000E+000	58.1331	0.0000000E+000	0.0000000E+000	0.0000000E+000	-58.1331	0.0000000E+000	0.0000000E+000	0.0000000E+000	-31.8669	0.0000000E+000	0.0000000E+000	0.0000000E+000	31.8669	1.60864	58.1331	-2.01155e-06	-1.82543e-06	-5.86504e-10	-1.82485e-06	0.270676	40161.8	12.9038	40148.8
21.5517	21.1751	10.4057	23.5937	-26.17	11.8555	0.270773	-0.00664536	709.689	138.044	1	11	0.00480325	0.000203582	0	7.6633e-05	0.000239613	1.62314e-05	-127.508	0.079729	-0.0485452	0.0632461	-26.36	23.5782	21.1266	10.4689	0.0380394	0.018693	0.0423842	26.17	138044	280913	312998	-63.83	0.0000000E+000	0.0000000E+000	0.0000000E+000	63.83	0.0000000E+000	0.0000000E+000	0.0000000E+000	-63.83	0.0000000E+000	0.0000000E+000	0.0000000E+000	-26.17	0.0000000E+000	0.0000000E+000	0.0000000E+000	26.17	2.03496	63.83	-8.17546e-07	-1.79939e-06	-1.59232e-09	-1.79779e-06	0.270534	40746.2	36.0572	40710.1
14.6852	24.1313	9.10266	25.791	-20.6672	12.3162	0.270757	-0.00607374	1190.62	148.311	1	11	0.00480626	0.000186354	0	7.54011e-05	-0.000275474	7.6339e-06	-50.3352	0.0409645	0.0261475	0.0315342	-20.7122	25.8266	24.1574	9.1342	0.036278	0.0136846	0.0387731	20.6672	148311	393174	420216	-69.3328	0.0000000E+000	0.0000000E+000	0.0000000E+000	69.3328	0.0000000E+000	0.0000000E+000	0.0000000E+000	-69.3328	0.0000000E+000	0.0000000E+000	0.0000000E+000	-20.6672	0.0000000E+000	0.0000000E+000	0.0000000E+000	20.6672	2.65102	69.3328	-1.23189e-06	-1.64451e-06	1.67316e-09	-1.64618e-06	0.271033	44578.3	45.3549	44623.7
10.0032	26.3296	7.56565	27.395	-16.0317	12.7668	0.270749	-0.00623015	2102.98	160.393	1	11	0.00480729	0.000175481	0	7.39933e-05	-0.000103778	1.29589e-05	52.2642	0.0738482	0.0451966	-0.0584022	-15.8883	27.4224	26.3748	7.50725	0.0350834	0.010081	0.036503	16.0317	160393	558190	580778	-73.9683	0.0000000E+000	0.0000000E+000	0.0000000E+000	73.9683	0.0000000E+000	0.0000000E+000	0.0000000E+000	-73.9683	0.0000000E+000	0.0000000E+000	0.0000000E+000	-16.0317	0.0000000E+000	0.0000000E+000	0.0000000E+000	16.0317	3.48015	73.9683	-1.40782e-06	-1.68681e-06	6.46553e-10	-1.68745e-06	0.270853	43457.9	16.6574	43474.6
6.81719	27.8877	6.13295	28.5541	-12.4028	13.1065	0.270774	-0.00519043	3806.67	175.609	1	11	0.00479906	0.000168069	0	7.34043e-05	0.000430387	7.14053e-06	76.6452	0.0424857	0.00981337	-0.0413368	-12.3176	28.5548	27.8975	6.09162	0.0342039	0.007522	0.0350213	12.4028	175609	798529	817611	-77.5972	0.0000000E+000	0.0000000E+000	0.0000000E+000	77.5972	0.0000000E+000	0.0000000E+000	0.0000000E+000	-77.5972	0.0000000E+000	0.0000000E+000	0.0000000E+000	-12.4028	0.0000000E+000	0.0000000E+000	0.0000000E+000	12.4028	4.54719	77.5972	-5.89023e-07	-1.40544e-06	-2.23389e-09	-1.4032e-06	0.270344	52168	82.9192	52085
4.63925	28.9327	4.93915	29.3513	-9.68766	13.5904	0.270768	-0.00552633	6945.77	196.685	1	11	0.00480019	0.000163543	0	7.44949e-05	0.000449464	8.83742e-06	23.0975	0.0540373	0.0497056	-0.0211987	-9.63063	29.3967	28.9824	4.91795	0.0335842	0.00573321	0.0340701	9.68766	196685	1.15215e+06	1.16881e+06	-80.3123	0.0000000E+000	0.0000000E+000	0.0000000E+000	80.3123	0.0000000E+000	0.0000000E+000	0.0000000E+000	-80.3123	0.0000000E+000	0.0000000E+000	0.0000000E+000	-9.68766	0.0000000E+000	0.0000000E+000	0.0000000E+000	9.68766	5.85784	80.3123	1.09064e-06	-1.49636e-06	-2.48389e-09	-1.49387e-06	0.270319	48996.1	81.3314	48914.7
3.1604	29.7959	4.01464	30.0651	-7.67371	14.2835	0.270779	-0.00438253	12543.9	223.665	1	11	0.00480344	0.000159768	0	7.35592e-05	0.000201459	3.83595e-06	-54.2507	0.0240095	0.0140273	0.0194857	-7.70692	30.0817	29.8099	4.03413	0.0329632	0.0044414	0.0332611	7.67371	223666	1.66e+06	1.675e+06	-82.3263	0.0000000E+000	0.0000000E+000	0.0000000E+000	82.3263	0.0000000E+000	0.0000000E+000	0.0000000E+000	-82.3263	0.0000000E+000	0.0000000E+000	0.0000000E+000	-7.67371	0.0000000E+000	0.0000000E+000	0.0000000E+000	7.67371	7.4218	82.3263	-9.35745e-07	-1.1867e-06	-8.829e-10	-1.18582e-06	0.270578	61786.1	45.9686	61740.1
2.15577	30.4137	3.37818	30.6008	-6.33809	15.2871	0.270769	-0.00388334	21854.2	266.34	1	11	0.00480795	0.000157119	0	6.987e-05	0.000106072	3.45234e-06	-35.4092	0.0219729	0.0179086	0.0127313	-6.35807	30.62	30.4317	3.39091	0.0324792	0.00360759	0.0326789	6.33809	266340	2.39786e+06	2.4126e+06	-83.6619	0.0000000E+000	0.0000000E+000	0.0000000E+000	83.6619	0.0000000E+000	0.0000000E+000	0.0000000E+000	-83.6619	0.0000000E+000	0.0000000E+000	0.0000000E+000	-6.33809	0.0000000E+000	0.0000000E+000	0.0000000E+000	6.33809	9.003	83.6619	-3.68914e-06	-1.05149e-06	-4.11915e-10	-1.05107e-06	0.270663	69725.8	27.3147	69698.4
1.46631	30.9359	2.87817	31.0695	-5.3153	16.7485	0.270768	-0.00364352	37711.9	323.625	1	11	0.00480749	0.000154733	0	6.534e-05	0.000258691	5.87598e-06	-6.06986	0.0379748	0.0377619	0.0040155	-5.31622	31.1075	30.9737	2.88218	0.0320475	0.00298159	0.0321859	5.3153	323625	3.47847e+06	3.49349e+06	-84.6847	0.0000000E+000	0.0000000E+000	0.0000000E+000	84.6847	0.0000000E+000	0.0000000E+000	0.0000000E+000	-84.6847	0.0000000E+000	0.0000000E+000	0.0000000E+000	-5.3153	0.0000000E+000	0.0000000E+000	0.0000000E+000	5.3153	10.7485	84.6847	-4.52999e-06	-9.86547e-07	-9.42544e-10	-9.85604e-07	0.270509	74315	71.0003	74244
1.00006	31.3934	2.60777	31.5015	-4.7485	19.922	0.27078	-0.00420732	61027.3	418.213	1	12	0.0048095	0.000152675	0	6.15669e-05	-8.47007e-05	2.2461e-06	29.2878	0.0147116	0.0128311	-0.00719686	-4.73353	31.5137	31.4062	2.60057	0.0316355	0.00262788	0.0317445	4.7485	418213	5.03463e+06	5.05197e+06	-85.2515	0.0000000E+000	0.0000000E+000	0.0000000E+000	85.2515	0.0000000E+000	0.0000000E+000	0.0000000E+000	-85.2515	0.0000000E+000	0.0000000E+000	0.0000000E+000	-4.7485	0.0000000E+000	0.0000000E+000	0.0000000E+000	4.7485	12.0384	85.2515	-3.77312e-06	-1.13926e-06	3.56363e-10	-1.13961e-06	0.270865	64359.3	20.1318	64379.4
0.681362	31.8118	2.47797	31.9081	-4.45404	23.0341	0.270772	-0.00448957	94264.1	568.506	1	12	0.00481169	0.000150798	0	6.29702e-05	0.000220536	2.00831e-06	21.9052	0.0133178	0.0123563	-0.0049685	-4.44343	31.92	31.8241	2.473	0.0312453	0.00243385	0.03134	4.45404	568507	7.29839e+06	7.3205e+06	-85.546	0.0000000E+000	0.0000000E+000	0.0000000E+000	85.546	0.0000000E+000	0.0000000E+000	0.0000000E+000	-85.546	0.0000000E+000	0.0000000E+000	0.0000000E+000	-4.45404	0.0000000E+000	0.0000000E+000	0.0000000E+000	4.45404	12.8378	85.546	1.40331e-06	-1.21565e-06	-9.90113e-10	-1.21466e-06	0.270551	60311.3	49.1219	60262.2
0.464091	32.1999	2.44897	32.2929	-4.34927	27.5906	0.270772	-0.00398986	140034	805.355	1	12	0.00481022	0.000148956	0	6.72201e-05	0.000296845	5.85976e-06	-12.6319	0.0393388	0.0383867	0.00860285	-4.35931	32.3318	32.2383	2.45757	0.0308774	0.00234839	0.0309666	4.34927	805355	1.05891e+07	1.06197e+07	-85.6507	0.0000000E+000	0.0000000E+000	0.0000000E+000	85.6507	0.0000000E+000	0.0000000E+000	0.0000000E+000	-85.6507	0.0000000E+000	0.0000000E+000	0.0000000E+000	-4.34927	0.0000000E+000	0.0000000E+000	0.0000000E+000	4.34927	13.1483	85.6507	4.24991e-06	-1.08034e-06	-1.18437e-09	-1.07916e-06	0.270475	67865	74.3999	67790.6
0.316193	32.6393	2.5731	32.7406	-4.50757	34.264	0.270777	-0.00296756	195619	1208.24	1	12	0.00481164	0.000146963	0	7.04388e-05	0.00012515	2.81421e-06	5.60977	0.0191492	0.0190574	-0.00187188	-4.50168	32.7594	32.6583	2.57123	0.0304487	0.00240041	0.0305432	4.50757	1.20824e+06	1.53263e+07	1.53738e+07	-85.4924	0.0000000E+000	0.0000000E+000	0.0000000E+000	85.4924	0.0000000E+000	0.0000000E+000	0.0000000E+000	-85.4924	0.0000000E+000	0.0000000E+000	0.0000000E+000	-4.50757	0.0000000E+000	0.0000000E+000	0.0000000E+000	4.50757	12.6848	85.4924	3.21869e-06	-8.03546e-07	-3.71389e-10	-8.03174e-07	0.270652	91245.6	42.1726	91203.4
0.215268	33.1083	2.9013	33.2352	-5.00808	44.0574	0.27077	-0.00194956	254828	1941.95	1	12	0.00480867	0.000144686	0	6.53069e-05	0.000525773	1.88148e-06	-85.4538	0.0130039	0.00103072	0.0129629	-5.03018	33.2373	33.1093	2.91427	0.0299738	0.00262662	0.0300886	5.00808	1.94195e+06	2.21606e+07	2.22456e+07	-84.9919	0.0000000E+000	0.0000000E+000	0.0000000E+000	84.9919	0.0000000E+000	0.0000000E+000	0.0000000E+000	-84.9919	0.0000000E+000	0.0000000E+000	0.0000000E+000	-5.00808	0.0000000E+000	0.0000000E+000	0.0000000E+000	5.00808	11.4115	84.9919	-5.13188e-06	-5.27884e-07	-1.02503e-09	-5.26859e-07	0.270245	138888	269.688	138618
0.146929	33.6155	3.39442	33.7864	-5.76606	58.3957	0.270771	-0.00090779	319115	3221.03	1	12	0.00481128	0.000142403	0	4.39229e-05	0.000201459	4.05676e-06	24.3139	0.0284879	0.0259612	-0.0117295	-5.74187	33.8111	33.6414	3.38269	0.0294479	0.00297359	0.0295977	5.76606	3.22103e+06	3.18983e+07	3.20606e+07	-84.2339	0.0000000E+000	0.0000000E+000	0.0000000E+000	84.2339	0.0000000E+000	0.0000000E+000	0.0000000E+000	-84.2339	0.0000000E+000	0.0000000E+000	0.0000000E+000	-5.76606	0.0000000E+000	0.0000000E+000	0.0000000E+000	5.76606	9.90315	84.2339	-2.1384e-05	-2.45803e-07	-1.82882e-10	-2.4562e-07	0.270569	298275	221.922	298053
0.0999041	34.1774	4.0604	34.4178	-6.77519	79.4717	0.270769	-0.00065996	392345	5460.59	1	12	0.00480955	0.00013974	0	1.2063e-06	-8.47007e-05	2.71243e-06	-18.3395	0.0194105	0.0184246	0.00610746	-6.78166	34.4368	34.1959	4.06651	0.0288518	0.0034277	0.0290547	6.77519	5.46059e+06	4.59632e+07	4.62864e+07	-83.2248	0.0000000E+000	0.0000000E+000	0.0000000E+000	83.2248	0.0000000E+000	0.0000000E+000	0.0000000E+000	-83.2248	0.0000000E+000	0.0000000E+000	0.0000000E+000	-6.77519	0.0000000E+000	0.0000000E+000	0.0000000E+000	6.77519	8.41725	83.2248	-4.27166e-05	-1.78696e-07	5.58991e-11	-1.78752e-07	0.270853	410281	128.342	410409
0.0680626	34.9128	4.97552	35.2655	-8.11077	110.398	0.270767	-0.000658547	469973	9355.12	1	12	0.00480846	0.00013635	0	-5.57798e-05	-0.000103778	1.98779e-06	-19.0783	0.0145786	0.0137778	0.00476514	-8.11528	35.2798	34.9266	4.98029	0.0280727	0.00400072	0.0283563	8.11077	9.35512e+06	6.5644e+07	6.63073e+07	-81.8892	0.0000000E+000	0.0000000E+000	0.0000000E+000	81.8892	0.0000000E+000	0.0000000E+000	0.0000000E+000	-81.8892	0.0000000E+000	0.0000000E+000	0.0000000E+000	-8.11077	0.0000000E+000	0.0000000E+000	0.0000000E+000	8.11077	7.01691	81.8892	-5.69861e-05	-1.78313e-07	6.83427e-11	-1.78381e-07	0.270871	411159	157.586	411316
0.0464052	35.8806	6.26091	36.4227	-9.89806	155.749	0.270771	-0.00126508	547793	16186.3	1	12	0.00481156	0.000132103	0	-0.000112762	8.6995e-05	2.63051e-06	-5.37522	0.0199125	0.0198249	0.00186536	-9.89559	36.4426	35.9004	6.26277	0.0270467	0.00471947	0.0274554	9.89806	1.61863e+07	9.27616e+07	9.41632e+07	-80.1019	0.0000000E+000	0.0000000E+000	0.0000000E+000	80.1019	0.0000000E+000	0.0000000E+000	0.0000000E+000	-80.1019	0.0000000E+000	0.0000000E+000	0.0000000E+000	-9.89806	0.0000000E+000	0.0000000E+000	0.0000000E+000	9.89806	5.73089	80.1019	-5.69819e-05	-3.42547e-07	-1.10056e-10	-3.42437e-07	0.270684	214034	68.7664	213965
0.0315922	36.897	8.18015	37.7929	-12.5004	222.355	0.270766	-0.00152585	615856	28852.3	1	12	0.00481121	0.000127304	0	-0.000123846	8.6995e-05	1.65019e-06	-61.5096	0.0129625	0.00618328	0.0113928	-12.5152	37.8014	36.9032	8.19154	0.0258327	0.00572717	0.02646	12.5004	2.88523e+07	1.3014e+08	1.333e+08	-77.4996	0.0000000E+000	0.0000000E+000	0.0000000E+000	77.4996	0.0000000E+000	0.0000000E+000	0.0000000E+000	-77.4996	0.0000000E+000	0.0000000E+000	0.0000000E+000	-12.5004	0.0000000E+000	0.0000000E+000	0.0000000E+000	12.5004	4.51055	77.4996	-1.10846e-05	-4.13148e-07	-1.32741e-10	-4.13015e-07	0.270679	177453	57.0143	177396
0.0215268	37.9557	10.5704	39.4001	-15.5621	320.092	0.270766	-0.00104435	699439	50342.7	1	12	0.0048092	0.00012206	0	-3.32143e-05	-0.000103778	3.2695e-06	-6.17348	0.026786	0.0266306	0.00288054	-15.5558	39.4266	37.9824	10.5733	0.0244502	0.00680919	0.0253806	15.5621	5.03427e+07	1.80769e+08	1.87648e+08	-74.4379	0.0000000E+000	0.0000000E+000	0.0000000E+000	74.4379	0.0000000E+000	0.0000000E+000	0.0000000E+000	-74.4379	0.0000000E+000	0.0000000E+000	0.0000000E+000	-15.5621	0.0000000E+000	0.0000000E+000	0.0000000E+000	15.5621	3.59076	74.4379	9.0632e-05	-2.82775e-07	1.08381e-10	-2.82883e-07	0.27087	259267	99.3708	259366
0.0146812	39.4874	13.5219	41.7384	-18.9031	463.395	0.27076	-0.000284576	801718	84144.4	1	12	0.00481174	0.000115283	0	0.000177789	0.000277768	4.08613e-06	-7.27543	0.0354443	0.0351589	0.00448864	-18.8933	41.7731	39.5225	13.5264	0.0226666	0.00776186	0.0239587	18.9031	8.41444e+07	2.45723e+08	2.59731e+08	-71.0969	0.0000000E+000	0.0000000E+000	0.0000000E+000	71.0969	0.0000000E+000	0.0000000E+000	0.0000000E+000	-71.0969	0.0000000E+000	0.0000000E+000	0.0000000E+000	-18.9031	0.0000000E+000	0.0000000E+000	0.0000000E+000	18.9031	2.92025	71.0969	0.000211003	-7.70516e-08	-7.9046e-11	-7.69726e-08	0.270482	951451	976.078	950475
0.0100092	41.6957	17.6809	45.2895	-22.9791	673.576	0.270763	0.000338964	899330	137066	1	12	0.00480931	0.00010619	0	0.000438171	0.000468541	3.83768e-06	10.7588	0.0361396	0.0355044	-0.00674635	-22.9538	45.3196	41.7312	17.6741	0.020328	0.00862001	0.0220802	22.9791	1.37066e+08	3.23234e+08	3.51095e+08	-67.0209	0.0000000E+000	0.0000000E+000	0.0000000E+000	67.0209	0.0000000E+000	0.0000000E+000	0.0000000E+000	-67.0209	0.0000000E+000	0.0000000E+000	0.0000000E+000	-22.9791	0.0000000E+000	0.0000000E+000	0.0000000E+000	22.9791	2.35824	67.0209	0.000260382	9.17789e-08	1.58819e-10	9.16201e-08	0.270294	798795	1382.27	797413