File: txt/19494_R316_UA628_SOC00_C04.mpt
EC-Lab ASCII FILE
Nb header lines : 65

Potentio Electrochemical Impedance Spectroscopy

Run on channel : 4 (SN 66756)
User :
CE vs. WE compliance from -10 V to 10 V
Electrode connection : standard
Potential control : Ewe
Ewe ctrl range : min = -10.00 V, max = 10.00 V
Safety Limits :
	Do not start on E overload
Acquisition started on : 12/04/2025 13:09:48.031
Technique started on : 12/04/2025 13:09:49.757
Loaded Setting File :  C:\Users\Celltest\OneDrive - store-dot.com\Documents\EC-Lab\Data\@Biologic Test Protocols\anode half cell EIS SOC00.mps
Saved on :
	File : 19494_R316_UA628_SOC00_C04.mpr
	Directory : C:\Users\Celltest\OneDrive - store-dot.com\Documents\EC-Lab\Data\Charmaine\
	Host : 169.254.61.224
Device : VMP-3e (SN .003165)
Address : USB
EC-LAB for windows v11.62 (software)
Internet server v27.00 (firmware)
Command interpretor v12.03 (firmware)
Electrode material :
Initial state :
Electrolyte :
Comments :
Electrode surface area : 0.001 cm²
Characteristic mass : 0.001 g
Equivalent Weight : 0.000 g/eq.
Density : 0.000 g/cm3
Volume (V) : 0.001 cm³
Record Ece
Cycle Definition : Charge/Discharge alternance
Mode                Single sine
E (V)               0.0000
vs.                 Eoc
tE (h:m:s)          0:00:0.0000
record              0
dI                  0.000
unit dI             mA
dt (s)              0.000
fi                  100.000
unit fi             kHz
ff                  10.000
unit ff             mHz
Nd                  6
Points              per decade
spacing             Logarithmic
Va (mV)             5.0
pw                  0.10
Na                  2
corr                0
E range min (V)     -10.000
E range max (V)     10.000
I Range             Auto
Bandwidth           5
nc cycles           0
goto Ns'            0
nr cycles           0
inc. cycle          0

freq/Hz	Re(Z)/Ohm	-Im(Z)/Ohm	|Z|/Ohm	Phase(Z)/deg	time/s	<Ewe>/V	<I>/mA	Cs/µF	Cp/µF	cycle number	I Range	|Ewe|/V	|I|/A	Ns	(Q-Qo)/mA.h	<Ece>/V	|Ece|/V	Phase(Zce)/deg	|Zce|/Ohm	Re(Zce)/Ohm	-Im(Zce)/Ohm	Phase(Zwe-ce)/deg	|Zwe-ce|/Ohm	Re(Zwe-ce)/Ohm	-Im(Zwe-ce)/Ohm	Re(Y)/Ohm-1	Im(Y)/Ohm-1	|Y|/Ohm-1	Phase(Y)/deg	Re(C)/nF	Im(C)/nF	|C|/nF	Phase(C)/deg	Re(M)	Im(M)	|M|	Phase(M)/deg	Re(Permittivity)	Im(Permittivity)	|Permittivity|	Phase(Permittivity)/deg	Re(Resistivity)/Ohm.cm	Im(Resistivity)/Ohm.cm	|Resistivity|/Ohm.cm	Phase(Resistivity)/deg	Re(Conductivity)/mS/cm	Im(Conductivity)/mS/cm	|Conductivity|/mS/cm	Phase(Conductivity)/deg	Tan(Delta)	Loss Angle(Delta)/deg	dq/mA.h	Pwe/W	Pce/W	Pwe-ce/W	<Ewe-Ece>/V	Rwe/Ohm	Rce/Ohm	Rwe-ce/Ohm		Ewe-Ece/V
100004	1.11345	0.39976	1.18304	-19.7496	1.72556	0.219144	0.0154931	3.98112	0.454577	1	9	0.00462345	0.00390812	0	1.30414e-05	-0.000292453	3.53409e-05	81.3092	0.00904294	0.0013664	-0.00893911	-19.3191	1.18133	1.11481	0.390821	0.795562	0.28563	0.845283	19.7496	454.577	1266.13	1345.26	-70.2504	0.0000000E+000	0.0000000E+000	0.0000000E+000	70.2504	0.0000000E+000	0.0000000E+000	0.0000000E+000	-70.2504	0.0000000E+000	0.0000000E+000	0.0000000E+000	-19.7496	0.0000000E+000	0.0000000E+000	0.0000000E+000	19.7496	2.78529	70.2504	1.30414e-05	3.39522e-06	-4.531e-09	3.39975e-06	0.219436	14144.6	18.8763	14163.5
68132	1.21626	0.456264	1.29903	-20.5629	2.23253	0.219142	0.0128077	5.1198	0.631609	1	9	0.00503731	0.00387776	0	2.40268e-05	-0.000139573	2.01803e-05	63.5733	0.00520411	0.0023161	-0.0046603	-20.3346	1.29957	1.21858	0.451603	0.720761	0.270383	0.769807	20.5629	631.609	1683.68	1798.25	-69.4371	0.0000000E+000	0.0000000E+000	0.0000000E+000	69.4371	0.0000000E+000	0.0000000E+000	0.0000000E+000	-69.4371	0.0000000E+000	0.0000000E+000	0.0000000E+000	-20.5629	0.0000000E+000	0.0000000E+000	0.0000000E+000	20.5629	2.6657	69.4371	1.09854e-05	2.80671e-06	-1.78761e-09	2.80849e-06	0.219282	17110.2	10.8976	17121.1
46420.4	1.33518	0.512669	1.43022	-21.0053	2.73953	0.219138	0.00803364	6.68766	0.859298	1	9	0.00508343	0.0035543	0	1.57169e-05	0.000166186	1.96632e-05	83.9765	0.00553223	0.000580536	-0.00550169	-20.791	1.4288	1.33576	0.507168	0.65273	0.250629	0.699193	21.0053	859.298	2237.92	2397.23	-68.9947	0.0000000E+000	0.0000000E+000	0.0000000E+000	68.9947	0.0000000E+000	0.0000000E+000	0.0000000E+000	-68.9947	0.0000000E+000	0.0000000E+000	0.0000000E+000	-21.0053	0.0000000E+000	0.0000000E+000	0.0000000E+000	21.0053	2.60436	68.9947	-8.30988e-06	1.76048e-06	1.33508e-09	1.75914e-06	0.218972	27277.6	20.6863	27256.9
31621.1	1.46063	0.575326	1.56985	-21.499	3.24655	0.219132	0.012472	8.7484	1.175	1	9	0.00502057	0.00319812	0	1.77306e-05	-4.40233e-05	1.17771e-05	30.179	0.00368251	0.00318338	-0.00185121	-21.3937	1.57214	1.46381	0.573475	0.592683	0.233452	0.637003	21.499	1175	2983.08	3206.15	-68.501	0.0000000E+000	0.0000000E+000	0.0000000E+000	68.501	0.0000000E+000	0.0000000E+000	0.0000000E+000	-68.501	0.0000000E+000	0.0000000E+000	0.0000000E+000	-21.499	0.0000000E+000	0.0000000E+000	0.0000000E+000	21.499	2.53878	68.501	2.0137e-06	2.73301e-06	-5.49059e-10	2.73356e-06	0.219176	17569.9	3.52977	17573.4
21544.7	1.59347	0.63979	1.71711	-21.8758	3.62954	0.219134	0.00937633	11.5463	1.60295	1	9	0.00527104	0.00306971	0	1.82694e-05	-0.000216013	1.09658e-05	-26.0845	0.00357227	0.00320842	0.00157072	-21.8845	1.72068	1.59668	0.64136	0.540438	0.21699	0.582372	21.8758	1602.95	3992.32	4302.1	-68.1242	0.0000000E+000	0.0000000E+000	0.0000000E+000	68.1242	0.0000000E+000	0.0000000E+000	0.0000000E+000	-68.1242	0.0000000E+000	0.0000000E+000	0.0000000E+000	-21.8758	0.0000000E+000	0.0000000E+000	0.0000000E+000	21.8758	2.49062	68.1242	5.38808e-07	2.05467e-06	-2.02541e-09	2.0567e-06	0.21935	23371	23.0381	23394
14678.6	1.74238	0.709329	1.88123	-22.1514	4.01255	0.219133	0.00795902	15.2858	2.1732	1	9	0.00506571	0.00269276	0	1.49187e-05	-0.000177793	9.2824e-06	-57.5712	0.00344717	0.00184854	0.00290961	-22.2122	1.88404	1.74423	0.712238	0.492332	0.20043	0.531567	22.1514	2173.2	5338.19	5763.6	-67.8486	0.0000000E+000	0.0000000E+000	0.0000000E+000	67.8486	0.0000000E+000	0.0000000E+000	0.0000000E+000	-67.8486	0.0000000E+000	0.0000000E+000	0.0000000E+000	-22.1514	0.0000000E+000	0.0000000E+000	0.0000000E+000	22.1514	2.45638	67.8486	-3.35067e-06	1.74408e-06	-1.41506e-09	1.7455e-06	0.21931	27532.6	22.3385	27554.9
10002.2	1.915	0.791962	2.0723	-22.4679	4.27154	0.219144	0.00255091	20.0918	2.93442	1	9	0.00480294	0.00231768	0	1.32966e-05	8.97464e-05	1.10502e-05	-74.0914	0.00476779	0.00130687	0.00458519	-22.5711	2.07527	1.91631	0.796547	0.445926	0.184416	0.482555	22.4679	2934.42	7095.56	7678.39	-67.5321	0.0000000E+000	0.0000000E+000	0.0000000E+000	67.5321	0.0000000E+000	0.0000000E+000	0.0000000E+000	-67.5321	0.0000000E+000	0.0000000E+000	0.0000000E+000	-22.4679	0.0000000E+000	0.0000000E+000	0.0000000E+000	22.4679	2.41805	67.5321	-1.62208e-06	5.59016e-07	2.28935e-10	5.58787e-07	0.219054	85908.1	35.1821	85873
6810.42	2.09463	0.869273	2.26784	-22.5385	4.53056	0.21914	0.00501251	26.8838	3.94982	1	9	0.00458776	0.00202297	0	1.50958e-05	-0.000254233	4.00472e-05	-95.1757	0.0197963	-0.00178581	0.0197155	-23.0146	2.27383	2.09284	0.888988	0.40727	0.169017	0.440948	22.5385	3949.82	9517.61	10304.7	-67.4615	0.0000000E+000	0.0000000E+000	0.0000000E+000	67.4615	0.0000000E+000	0.0000000E+000	0.0000000E+000	-67.4615	0.0000000E+000	0.0000000E+000	0.0000000E+000	-22.5385	0.0000000E+000	0.0000000E+000	0.0000000E+000	22.5385	2.40963	67.4615	1.79921e-06	1.09844e-06	-1.27435e-09	1.09972e-06	0.219394	43718.6	50.7196	43769.3
4646	2.28752	1.01319	2.50186	-23.8896	4.92359	0.219113	-0.0124799	33.8104	5.54506	1	9	0.00497147	0.00198711	0	1.27803e-05	1.33066e-05	4.94307e-06	56.1356	0.00248757	0.00138615	-0.00206557	-23.8335	2.50229	2.2889	1.01112	0.365459	0.16187	0.399703	23.8896	5545.06	12519.3	13692.4	-66.1104	0.0000000E+000	0.0000000E+000	0.0000000E+000	66.1104	0.0000000E+000	0.0000000E+000	0.0000000E+000	-66.1104	0.0000000E+000	0.0000000E+000	0.0000000E+000	-23.8896	0.0000000E+000	0.0000000E+000	0.0000000E+000	23.8896	2.25774	66.1104	-2.31555e-06	-2.73451e-06	-1.66065e-10	-2.73434e-06	0.219099	17557.2	1.06624	17556.2
3163.08	2.5057	1.14942	2.75676	-24.6419	5.29766	0.21896	-0.0508961	43.7756	7.61011	1	9	0.00489771	0.00177662	0	8.13748e-06	-0.000158683	5.92384e-06	16.6601	0.00333433	0.00319436	-0.000955928	-24.5962	2.75926	2.5089	1.14846	0.32971	0.151245	0.362745	24.6419	7610.11	16589.8	18252	-65.3581	0.0000000E+000	0.0000000E+000	0.0000000E+000	65.3581	0.0000000E+000	0.0000000E+000	0.0000000E+000	-65.3581	0.0000000E+000	0.0000000E+000	0.0000000E+000	-24.6419	0.0000000E+000	0.0000000E+000	0.0000000E+000	24.6419	2.17997	65.3581	-4.6428e-06	-1.11442e-05	8.07635e-09	-1.11523e-05	0.219119	4302.1	3.11778	4305.22
2155.69	2.75458	1.33193	3.0597	-25.8053	5.74881	0.219035	0.0118752	55.4308	10.5041	1	9	0.00483351	0.00157973	0	8.83072e-06	-0.000196903	9.39642e-06	-1.91977	0.00594811	0.00594477	0.000199262	-25.7603	3.06514	2.76053	1.33213	0.294237	0.142274	0.326829	25.8053	10504.1	21723.6	24129.9	-64.1947	0.0000000E+000	0.0000000E+000	0.0000000E+000	64.1947	0.0000000E+000	0.0000000E+000	0.0000000E+000	-64.1947	0.0000000E+000	0.0000000E+000	0.0000000E+000	-25.8053	0.0000000E+000	0.0000000E+000	0.0000000E+000	25.8053	2.06811	64.1947	6.93234e-07	2.60108e-06	-2.33826e-09	2.60342e-06	0.219232	18444.7	16.581	18461.3
1468.59	3.01164	1.5706	3.39658	-27.5425	6.20007	0.219031	0.0114649	69.0008	14.7537	1	9	0.00480616	0.001415	0	9.89651e-06	-0.000483552	4.11705e-06	9.79608	0.00290958	0.00286715	-0.000495041	-27.5127	3.3989	3.01451	1.57011	0.261047	0.136138	0.294413	27.5425	14753.7	28290.4	31906.4	-62.4575	0.0000000E+000	0.0000000E+000	0.0000000E+000	62.4575	0.0000000E+000	0.0000000E+000	0.0000000E+000	-62.4575	0.0000000E+000	0.0000000E+000	0.0000000E+000	-27.5425	0.0000000E+000	0.0000000E+000	0.0000000E+000	27.5425	1.91751	62.4575	1.06579e-06	2.51118e-06	-5.54389e-09	2.51672e-06	0.219515	19104.4	42.1766	19146.6
1000.32	3.34534	1.85493	3.82519	-29.0076	6.89578	0.219043	0.00395922	85.7735	20.1698	1	10	0.0048761	0.00127473	0	1.26781e-05	-0.000177793	1.29468e-05	-38.2062	0.0101565	0.00798085	0.00628171	-29.0318	3.83522	3.35332	1.86121	0.228631	0.126771	0.261425	29.0076	20169.8	36376	41593.7	-60.9924	0.0000000E+000	0.0000000E+000	0.0000000E+000	60.9924	0.0000000E+000	0.0000000E+000	0.0000000E+000	-60.9924	0.0000000E+000	0.0000000E+000	0.0000000E+000	-29.0076	0.0000000E+000	0.0000000E+000	0.0000000E+000	29.0076	1.80349	60.9924	2.78162e-06	8.67241e-07	-7.03921e-10	8.67945e-07	0.219221	55324.9	44.9061	55369.8
681.09	3.71023	2.25143	4.3399	-31.2501	7.34659	0.219048	0.00305651	103.79	27.9329	1	10	0.00483341	0.00111371	0	1.29764e-05	8.97464e-05	5.43187e-06	54.8808	0.00487726	0.00280579	-0.00398939	-31.1859	4.34023	3.71303	2.24744	0.196989	0.119536	0.23042	31.2501	27932.8	46031.7	53843.9	-58.7499	0.0000000E+000	0.0000000E+000	0.0000000E+000	58.7499	0.0000000E+000	0.0000000E+000	0.0000000E+000	-58.7499	0.0000000E+000	0.0000000E+000	0.0000000E+000	-31.2501	0.0000000E+000	0.0000000E+000	0.0000000E+000	31.2501	1.64794	58.7499	2.98254e-07	6.69525e-07	2.74311e-10	6.69251e-07	0.218959	71666.1	29.3623	71636.7
463.961	4.15085	2.75508	4.98197	-33.5738	7.79832	0.219051	0.00368318	124.51	38.0777	1	10	0.00479875	0.000963223	0	1.36434e-05	-8.22432e-05	8.15025e-06	-8.41243	0.00846143	0.00837039	0.00123789	-33.5325	4.98963	4.15922	2.75632	0.167238	0.111002	0.200724	33.5738	38077.7	57368.5	68855.4	-56.4262	0.0000000E+000	0.0000000E+000	0.0000000E+000	56.4262	0.0000000E+000	0.0000000E+000	0.0000000E+000	-56.4262	0.0000000E+000	0.0000000E+000	0.0000000E+000	-33.5738	0.0000000E+000	0.0000000E+000	0.0000000E+000	33.5738	1.50662	56.4262	6.67072e-07	8.06804e-07	-3.02917e-10	8.07107e-07	0.219133	59473.2	22.3294	59495.5
316.316	4.72174	3.39779	5.8172	-35.7389	8.24604	0.219054	0.00281031	148.082	50.5204	1	10	0.00477569	0.000820961	0	1.39807e-05	-5.80336e-06	3.29441e-06	-38.7441	0.00401287	0.00312983	0.00251143	-35.741	5.82121	4.72487	3.4003	0.139532	0.100408	0.171904	35.7389	50520.4	70205.9	86493.8	-54.2611	0.0000000E+000	0.0000000E+000	0.0000000E+000	54.2611	0.0000000E+000	0.0000000E+000	0.0000000E+000	-54.2611	0.0000000E+000	0.0000000E+000	0.0000000E+000	-35.7389	0.0000000E+000	0.0000000E+000	0.0000000E+000	35.7389	1.38965	54.261	3.37234e-07	6.15611e-07	-1.63093e-11	6.15627e-07	0.21906	77946.6	2.06502	77948.6
215.345	5.4744	4.22462	6.91494	-37.6575	8.69552	0.21904	0.00284761	174.944	65.2974	1	10	0.00476149	0.00068858	0	1.51714e-05	-0.000177793	4.422e-06	-127.834	0.00642191	-0.00393906	0.00507196	-37.7107	6.91493	5.47046	4.22969	0.114488	0.0883507	0.144614	37.6575	65297.4	84614.6	106880	-52.3425	0.0000000E+000	0.0000000E+000	0.0000000E+000	52.3425	0.0000000E+000	0.0000000E+000	0.0000000E+000	-52.3425	0.0000000E+000	0.0000000E+000	0.0000000E+000	-37.6575	0.0000000E+000	0.0000000E+000	0.0000000E+000	37.6575	1.29583	52.3425	1.19071e-06	6.2374e-07	-5.06284e-10	6.24247e-07	0.219218	76920.9	62.4359	76983.3
146.737	6.55428	5.18084	8.35462	-38.3247	9.14148	0.219039	0.00208665	209.353	80.5056	1	10	0.00475687	0.00056937	0	1.60991e-05	-0.000292453	6.70073e-06	4.20459	0.0117687	0.011737	-0.000862857	-38.2702	8.3633	6.56601	5.17998	0.0939013	0.0742244	0.119694	38.3247	80505.6	101848	129823	-51.6753	0.0000000E+000	0.0000000E+000	0.0000000E+000	51.6753	0.0000000E+000	0.0000000E+000	0.0000000E+000	-51.6753	0.0000000E+000	0.0000000E+000	0.0000000E+000	-38.3247	0.0000000E+000	0.0000000E+000	0.0000000E+000	38.3247	1.2651	51.6753	9.27688e-07	4.57058e-07	-6.10245e-10	4.57668e-07	0.219332	104972	140.154	105112
100.032	8.01741	6.20076	10.1355	-37.7188	9.59285	0.219056	0.00271705	256.588	96.0363	1	10	0.00474713	0.000468366	0	1.59914e-05	0.000242626	5.16546e-06	-137.721	0.0110287	-0.00815987	0.00741944	-37.7802	10.1336	8.00926	6.20818	0.0780448	0.0603607	0.0986631	37.7188	96036.3	124172	156977	-52.2812	0.0000000E+000	0.0000000E+000	0.0000000E+000	52.2812	0.0000000E+000	0.0000000E+000	0.0000000E+000	-52.2812	0.0000000E+000	0.0000000E+000	0.0000000E+000	-37.7188	0.0000000E+000	0.0000000E+000	0.0000000E+000	37.7188	1.29297	52.2812	-1.07723e-07	5.95186e-07	6.59226e-10	5.94527e-07	0.218814	80623	89.2978	80533.7
68.104	10.0669	7.06174	12.2968	-35.0488	10.0555	0.219051	0.00424268	330.93	109.138	1	10	0.00474676	0.000386016	0	1.63445e-05	-2.49133e-05	4.06986e-06	-44.5395	0.0105432	0.00751487	0.00739505	-35.0569	12.3072	10.0744	7.06913	0.0665753	0.0467011	0.081322	35.0488	109138	155582	190045	-54.9512	0.0000000E+000	0.0000000E+000	0.0000000E+000	54.9512	0.0000000E+000	0.0000000E+000	0.0000000E+000	-54.9512	0.0000000E+000	0.0000000E+000	0.0000000E+000	-35.0488	0.0000000E+000	0.0000000E+000	0.0000000E+000	35.0488	1.42556	54.9512	3.53151e-07	9.29365e-07	-1.05699e-10	9.29471e-07	0.219076	51630.3	5.87206	51636.2
46.4415	12.4643	7.4567	14.5245	-30.8897	10.4926	0.219044	8.3535e-05	459.586	121.131	1	10	0.00474564	0.000326733	0	1.64315e-05	3.24166e-05	5.78445e-06	-48.1093	0.0177039	0.0118211	0.0131791	-30.9104	14.5414	12.4761	7.46988	0.0590833	0.0353462	0.0688491	30.8897	121131	202478	235945	-59.1103	0.0000000E+000	0.0000000E+000	0.0000000E+000	59.1103	0.0000000E+000	0.0000000E+000	0.0000000E+000	-59.1103	0.0000000E+000	0.0000000E+000	0.0000000E+000	-30.8897	0.0000000E+000	0.0000000E+000	0.0000000E+000	30.8897	1.67156	59.1103	8.70208e-08	1.82978e-08	2.70792e-12	1.82951e-08	0.219011	2.62218e+06	388.059	2.62179e+06
31.6296	14.9568	7.13816	16.5728	-25.513	10.9225	0.219053	-0.00172187	704.921	130.774	1	10	0.00477934	0.000288384	0	1.67973e-05	0.000108856	3.19428e-05	144.59	0.110765	-0.0902756	-0.0641804	-25.4467	16.4637	14.8665	7.07398	0.0544559	0.0259893	0.0603398	25.513	130774	274014	303620	-64.487	0.0000000E+000	0.0000000E+000	0.0000000E+000	64.487	0.0000000E+000	0.0000000E+000	0.0000000E+000	-64.487	0.0000000E+000	0.0000000E+000	0.0000000E+000	-25.513	0.0000000E+000	0.0000000E+000	0.0000000E+000	25.513	2.09532	64.487	3.65783e-07	-3.77181e-07	-1.87436e-10	-3.76994e-07	0.218944	127218	63.2199	127155
21.5517	17.2404	6.37271	18.3805	-20.2862	11.5755	0.219085	0.0169047	1158.81	139.299	1	11	0.00474355	0.000258075	0	1.89046e-05	-0.000254233	3.43457e-06	75.4941	0.0133084	0.00333348	-0.0128842	-20.2449	18.3792	17.2438	6.35982	0.0510308	0.0188629	0.0544054	20.2862	139299	376852	401773	-69.7138	0.0000000E+000	0.0000000E+000	0.0000000E+000	69.7138	0.0000000E+000	0.0000000E+000	0.0000000E+000	-69.7138	0.0000000E+000	0.0000000E+000	0.0000000E+000	-20.2862	0.0000000E+000	0.0000000E+000	0.0000000E+000	20.2862	2.70535	69.7138	2.10728e-06	3.70356e-06	-4.29773e-09	3.70786e-06	0.219339	12960	15.0392	12975
14.6852	18.8728	5.27853	19.597	-15.6258	12.0361	0.219089	0.0171121	2053.19	148.961	1	11	0.00474643	0.000242202	0	2.0763e-05	-0.000216013	7.71151e-06	10.537	0.0318392	0.0313023	-0.00582247	-15.5848	19.6256	18.9041	5.2727	0.0491422	0.0137446	0.0510281	15.6258	148961	532594	553033	-74.3742	0.0000000E+000	0.0000000E+000	0.0000000E+000	74.3742	0.0000000E+000	0.0000000E+000	0.0000000E+000	-74.3742	0.0000000E+000	0.0000000E+000	0.0000000E+000	-15.6258	0.0000000E+000	0.0000000E+000	0.0000000E+000	15.6258	3.57538	74.3742	1.85843e-06	3.74908e-06	-3.69644e-09	3.75278e-06	0.219305	12803.2	12.6234	12815.8
10.0032	20.0271	4.14887	20.4523	-11.704	12.4868	0.219075	0.0168708	3834.87	157.807	1	11	0.00476006	0.00023274	0	2.15226e-05	-0.000311563	3.0989e-05	6.74171	0.133148	0.132228	-0.0156308	-11.5867	20.5786	20.1593	4.13324	0.0478777	0.0099185	0.0488943	11.704	157807	761753	777928	-78.296	0.0000000E+000	0.0000000E+000	0.0000000E+000	78.296	0.0000000E+000	0.0000000E+000	0.0000000E+000	-78.296	0.0000000E+000	0.0000000E+000	0.0000000E+000	-11.704	0.0000000E+000	0.0000000E+000	0.0000000E+000	11.704	4.82711	78.296	7.59614e-07	3.69596e-06	-5.2563e-09	3.70122e-06	0.219387	12985.5	18.4676	13004
6.81719	20.6646	3.17739	20.9074	-8.74135	12.8265	0.21909	0.0169812	7347.58	169.701	1	11	0.00473459	0.000226455	0	2.35967e-05	-0.000158683	3.61076e-06	65.3464	0.0159447	0.00665104	-0.0144913	-8.69934	20.9118	20.6712	3.1629	0.0472743	0.00726891	0.0478299	8.74135	169701	1.10367e+06	1.11664e+06	-81.2586	0.0000000E+000	0.0000000E+000	0.0000000E+000	81.2586	0.0000000E+000	0.0000000E+000	0.0000000E+000	-81.2586	0.0000000E+000	0.0000000E+000	0.0000000E+000	-8.74135	0.0000000E+000	0.0000000E+000	0.0000000E+000	8.74135	6.50363	81.2586	2.07404e-06	3.72041e-06	-2.69462e-09	3.72311e-06	0.219249	12901.9	9.34464	12911.3
4.63925	21.1033	2.49451	21.2502	-6.74137	13.3104	0.219081	0.0167469	13752.6	189.51	1	11	0.00473513	0.000222828	0	2.79997e-05	-5.80336e-06	1.26404e-05	-15.8753	0.056727	0.0545634	0.0155174	-6.76559	21.3062	21.1578	2.51003	0.046733	0.00552408	0.0470584	6.74137	189510	1.60323e+06	1.61439e+06	-83.2586	0.0000000E+000	0.0000000E+000	0.0000000E+000	83.2586	0.0000000E+000	0.0000000E+000	0.0000000E+000	-83.2586	0.0000000E+000	0.0000000E+000	0.0000000E+000	-6.74137	0.0000000E+000	0.0000000E+000	0.0000000E+000	6.74137	8.45987	83.2586	4.40303e-06	3.66893e-06	-9.71882e-11	3.66903e-06	0.219087	13081.9	0.346534	13082.3
3.1604	21.4426	1.94378	21.5305	-5.17974	14.0034	0.219082	0.0173377	25907.8	211.163	1	11	0.00473757	0.00022004	0	3.01821e-05	-0.000177793	3.16823e-06	-4.27281	0.0143984	0.0143584	0.00107276	-5.17914	21.5449	21.4569	1.94486	0.0462561	0.00419315	0.0464458	5.17974	211163	2.32942e+06	2.33897e+06	-84.8203	0.0000000E+000	0.0000000E+000	0.0000000E+000	84.8203	0.0000000E+000	0.0000000E+000	0.0000000E+000	-84.8203	0.0000000E+000	0.0000000E+000	0.0000000E+000	-5.17974	0.0000000E+000	0.0000000E+000	0.0000000E+000	5.17974	11.0314	84.8203	2.18243e-06	3.79837e-06	-3.08251e-09	3.80145e-06	0.21926	12636.2	10.2547	12646.5
2.15577	21.6611	1.55392	21.7168	-4.10326	15.007	0.219087	0.0174872	47510.4	243.253	1	11	0.00473799	0.000218172	0	3.11093e-05	0.000204406	5.88136e-06	34.5948	0.0269574	0.022191	-0.0153056	-4.05883	21.7378	21.6833	1.53862	0.0459294	0.00329488	0.0460474	4.10326	243253	3.39085e+06	3.39956e+06	-85.8967	0.0000000E+000	0.0000000E+000	0.0000000E+000	85.8967	0.0000000E+000	0.0000000E+000	0.0000000E+000	-85.8967	0.0000000E+000	0.0000000E+000	0.0000000E+000	-4.10326	0.0000000E+000	0.0000000E+000	0.0000000E+000	4.10326	13.9396	85.8967	9.27159e-07	3.83122e-06	3.57448e-09	3.82764e-06	0.218883	12528.5	11.6889	12516.8
1.46631	21.8446	1.29337	21.8829	-3.38839	16.4684	0.219089	0.0169119	83921.5	293.162	1	11	0.00473979	0.000216598	0	3.49628e-05	8.97464e-05	2.25391e-06	64.3573	0.010406	0.00450327	-0.00938108	-3.36318	21.8868	21.8491	1.28398	0.045618	0.00270093	0.0456979	3.38839	293162	4.95143e+06	4.9601e+06	-86.6116	0.0000000E+000	0.0000000E+000	0.0000000E+000	86.6116	0.0000000E+000	0.0000000E+000	0.0000000E+000	-86.6116	0.0000000E+000	0.0000000E+000	0.0000000E+000	-3.38839	0.0000000E+000	0.0000000E+000	0.0000000E+000	3.38839	16.8897	86.6116	3.85351e-06	3.70522e-06	1.51778e-09	3.7037e-06	0.219	12954.7	5.3067	12949.4
1.00006	21.9981	1.18081	22.0297	-3.07257	19.6419	0.219095	0.0158296	134776	387.217	1	12	0.00474117	0.000215217	0	5.12276e-05	8.97464e-05	3.66533e-06	-68.6292	0.0170309	0.00620608	0.0158598	-3.11288	22.0368	22.0043	1.19667	0.0453279	0.00243311	0.0453932	3.07257	387217	7.21371e+06	7.22409e+06	-86.9274	0.0000000E+000	0.0000000E+000	0.0000000E+000	86.9274	0.0000000E+000	0.0000000E+000	0.0000000E+000	-86.9274	0.0000000E+000	0.0000000E+000	0.0000000E+000	-3.07257	0.0000000E+000	0.0000000E+000	0.0000000E+000	3.07257	18.6296	86.9274	1.62648e-05	3.46819e-06	1.42065e-09	3.46677e-06	0.219005	13840.8	5.66951	13835.1
0.681362	22.1451	1.14231	22.1745	-2.95286	22.754	0.21909	0.0145924	204484	542.646	1	12	0.0047414	0.000213822	0	7.31189e-05	3.24166e-05	4.33923e-06	109.809	0.0202937	-0.0068771	-0.0190929	-2.90449	22.1667	22.1382	1.12321	0.0450369	0.00232314	0.0450968	2.95286	542646	1.05199e+07	1.05339e+07	-87.0471	0.0000000E+000	0.0000000E+000	0.0000000E+000	87.0471	0.0000000E+000	0.0000000E+000	0.0000000E+000	-87.0471	0.0000000E+000	0.0000000E+000	0.0000000E+000	-2.95286	0.0000000E+000	0.0000000E+000	0.0000000E+000	2.95286	19.3863	87.0471	2.18912e-05	3.19704e-06	4.73034e-10	3.19657e-06	0.219058	15014	2.22147	15011.8
0.464091	22.3156	1.18152	22.3468	-3.03075	27.3107	0.21909	0.0142866	290253	811.385	1	12	0.0047435	0.000212267	0	0.000103553	-5.80336e-06	2.573e-06	-58.9042	0.0121215	0.00626041	0.0103797	-3.05647	22.3536	22.3218	1.1919	0.0446865	0.00236597	0.0447491	3.03075	811385	1.53248e+07	1.53462e+07	-86.9692	0.0000000E+000	0.0000000E+000	0.0000000E+000	86.9692	0.0000000E+000	0.0000000E+000	0.0000000E+000	-86.9692	0.0000000E+000	0.0000000E+000	0.0000000E+000	-3.03075	0.0000000E+000	0.0000000E+000	0.0000000E+000	3.03075	18.8872	86.9692	3.04344e-05	3.13007e-06	-8.29106e-11	3.13015e-06	0.219096	15335.3	0.406208	15335.7
0.316193	22.5203	1.35424	22.561	-3.4413	33.9841	0.219091	0.0140139	371682	1339.21	1	12	0.00474029	0.00021011	0	0.00013704	-0.000196903	2.49321e-06	-15.2914	0.0118662	0.0114461	0.00312946	-3.44748	22.5726	22.5317	1.35737	0.0442444	0.00266061	0.0443244	3.4413	1.33921e+06	2.22703e+07	2.23105e+07	-86.5587	0.0000000E+000	0.0000000E+000	0.0000000E+000	86.5587	0.0000000E+000	0.0000000E+000	0.0000000E+000	-86.5587	0.0000000E+000	0.0000000E+000	0.0000000E+000	-3.4413	0.0000000E+000	0.0000000E+000	0.0000000E+000	3.4413	16.6294	86.5587	3.3487e-05	3.07032e-06	-2.75938e-09	3.07308e-06	0.219288	15633.8	14.0505	15647.9
0.215268	22.742	1.65591	22.8022	-4.16453	43.7766	0.219099	0.0139084	446482	2354.64	1	12	0.00474345	0.000208026	0	0.0001659	8.97464e-05	2.11908e-06	-15.1019	0.0101866	0.00983479	0.00265398	-4.16938	22.8122	22.7518	1.65856	0.0437397	0.00318482	0.0438555	4.16453	2.35465e+06	3.23383e+07	3.24239e+07	-85.8355	0.0000000E+000	0.0000000E+000	0.0000000E+000	85.8355	0.0000000E+000	0.0000000E+000	0.0000000E+000	-85.8355	0.0000000E+000	0.0000000E+000	0.0000000E+000	-4.16453	0.0000000E+000	0.0000000E+000	0.0000000E+000	4.16453	13.7338	85.8355	2.88601e-05	3.04732e-06	1.24823e-09	3.04607e-06	0.21901	15753	6.45268	15746.6
0.146929	22.9687	2.03389	23.0586	-5.06037	58.1149	0.219085	0.0125051	532580	4143.58	1	12	0.00474118	0.000205615	0	0.000183109	7.06365e-05	3.5216e-06	52.6798	0.0171272	0.0103837	-0.0136205	-5.0244	23.0677	22.9791	2.02027	0.0431987	0.00382527	0.0433678	5.06037	4.14358e+06	4.67934e+07	4.69765e+07	-84.9396	0.0000000E+000	0.0000000E+000	0.0000000E+000	84.9396	0.0000000E+000	0.0000000E+000	0.0000000E+000	-84.9396	0.0000000E+000	0.0000000E+000	0.0000000E+000	-5.06037	0.0000000E+000	0.0000000E+000	0.0000000E+000	5.06037	11.293	84.9396	1.72087e-05	2.73969e-06	8.83317e-10	2.7388e-06	0.219015	17519.7	5.6486	17514
0.0999041	23.2963	2.51609	23.4318	-6.16427	79.1921	0.219091	0.0109738	633155	7300.49	1	12	0.00474025	0.0002023	0	0.000193013	1.33066e-05	2.26224e-06	5.23876	0.0111826	0.0111359	-0.00102104	-6.15887	23.4428	23.3075	2.51507	0.0424303	0.00458263	0.042677	6.16427	7.30049e+06	6.75947e+07	6.79878e+07	-83.8357	0.0000000E+000	0.0000000E+000	0.0000000E+000	83.8357	0.0000000E+000	0.0000000E+000	0.0000000E+000	-83.8357	0.0000000E+000	0.0000000E+000	0.0000000E+000	-6.16427	0.0000000E+000	0.0000000E+000	0.0000000E+000	6.16427	9.25893	83.8357	9.90433e-06	2.40427e-06	1.46024e-10	2.40412e-06	0.219078	19964.9	1.21257	19963.6
0.0680626	23.7881	3.17041	23.9984	-7.59148	110.119	0.219098	0.00974788	737558	12872.5	1	12	0.00474191	0.000197593	0	0.000218266	5.15265e-05	1.77212e-06	-21.4536	0.00896855	0.00834716	0.00328023	-7.59661	24.0071	23.7964	3.17369	0.0413042	0.00550491	0.0416694	7.59148	1.28725e+07	9.65841e+07	9.74381e+07	-82.4085	0.0000000E+000	0.0000000E+000	0.0000000E+000	82.4085	0.0000000E+000	0.0000000E+000	0.0000000E+000	-82.4085	0.0000000E+000	0.0000000E+000	0.0000000E+000	-7.59148	0.0000000E+000	0.0000000E+000	0.0000000E+000	7.59148	7.50316	82.4085	2.52531e-05	2.13574e-06	5.02274e-10	2.13524e-06	0.219047	22476.5	5.28592	22471.2
0.0464052	24.4776	4.09693	24.8181	-9.50178	155.471	0.219095	0.00817323	837134	22812.6	1	12	0.00474742	0.000191289	0	0.000306713	-5.80336e-06	2.20274e-06	38.1876	0.0115152	0.00905088	-0.00711916	-9.48213	24.8259	24.4867	4.08981	0.0397403	0.00665152	0.0402931	9.50178	2.28126e+07	1.36297e+08	1.38193e+08	-80.4982	0.0000000E+000	0.0000000E+000	0.0000000E+000	80.4982	0.0000000E+000	0.0000000E+000	0.0000000E+000	-80.4982	0.0000000E+000	0.0000000E+000	0.0000000E+000	-9.50178	0.0000000E+000	0.0000000E+000	0.0000000E+000	9.50178	5.97462	80.4982	8.84467e-05	1.79071e-06	-4.74322e-11	1.79076e-06	0.219101	26806.4	0.710044	26807.1
0.0315922	25.2054	5.31377	25.7594	-11.9047	222.075	0.219093	0.007619	948064	40343.3	1	12	0.00474235	0.000184102	0	0.000539959	-2.49133e-05	1.90912e-06	20.6766	0.0103699	0.00970199	-0.00366156	-11.8923	25.7681	25.2151	5.31011	0.0379858	0.00800813	0.0388208	11.9047	4.03433e+07	1.91365e+08	1.95571e+08	-78.0953	0.0000000E+000	0.0000000E+000	0.0000000E+000	78.0953	0.0000000E+000	0.0000000E+000	0.0000000E+000	-78.0953	0.0000000E+000	0.0000000E+000	0.0000000E+000	-11.9047	0.0000000E+000	0.0000000E+000	0.0000000E+000	11.9047	4.74341	78.0953	0.000233246	1.66927e-06	-1.89815e-10	1.66946e-06	0.219118	28756.1	3.26989	28759.4
0.0215268	26.163	6.74322	27.018	-14.4528	319.814	0.219094	0.00765233	1.09641e+06	68297.2	1	12	0.00474241	0.000175528	0	0.000981075	-5.80336e-06	2.12764e-06	3.05739	0.0121214	0.0121041	-0.000646509	-14.4451	27.0295	26.1751	6.74258	0.0358411	0.00923766	0.0370124	14.4528	6.82972e+07	2.64985e+08	2.73645e+08	-75.5472	0.0000000E+000	0.0000000E+000	0.0000000E+000	75.5472	0.0000000E+000	0.0000000E+000	0.0000000E+000	-75.5472	0.0000000E+000	0.0000000E+000	0.0000000E+000	-14.4528	0.0000000E+000	0.0000000E+000	0.0000000E+000	14.4528	3.87989	75.5472	0.000441116	1.67658e-06	-4.44092e-11	1.67663e-06	0.2191	28631	0.758378	28631.8
0.0146812	27.5823	8.59232	28.8897	-17.3026	463.115	0.219094	0.00773612	1.26168e+06	111605	1	12	0.00474467	0.000164234	0	0.00160686	-8.22432e-05	1.8285e-06	-41.0176	0.0111335	0.00840031	0.00730682	-17.3115	28.8999	27.5907	8.59963	0.0330481	0.010295	0.0346145	17.3026	1.11605e+08	3.58266e+08	3.75247e+08	-72.6974	0.0000000E+000	0.0000000E+000	0.0000000E+000	72.6974	0.0000000E+000	0.0000000E+000	0.0000000E+000	-72.6974	0.0000000E+000	0.0000000E+000	0.0000000E+000	-17.3026	0.0000000E+000	0.0000000E+000	0.0000000E+000	17.3026	3.21011	72.6974	0.000625789	1.69494e-06	-6.36243e-10	1.69557e-06	0.219176	28320.9	10.6311	28331.5
0.0100092	29.5002	11.1553	31.539	-20.7138	673.297	0.219092	0.0078974	1.42541e+06	178324	1	12	0.00474507	0.000150451	0	0.0022808	-0.000120463	2.84602e-06	19.0601	0.0189166	0.0178795	-0.00617741	-20.6918	31.5535	29.5181	11.1492	0.0296573	0.0112147	0.0317068	20.7138	1.78324e+08	4.71577e+08	5.04167e+08	-69.2862	0.0000000E+000	0.0000000E+000	0.0000000E+000	69.2862	0.0000000E+000	0.0000000E+000	0.0000000E+000	-69.2862	0.0000000E+000	0.0000000E+000	0.0000000E+000	-20.7138	0.0000000E+000	0.0000000E+000	0.0000000E+000	20.7138	2.6445	69.2862	0.000673937	1.73026e-06	-9.51345e-10	1.73121e-06	0.219212	27742.3	15.2535	27757.5