File: txt/19492_R316_UA628_SOC00_C02.mpt
EC-Lab ASCII FILE
Nb header lines : 65

Potentio Electrochemical Impedance Spectroscopy

Run on channel : 2 (SN 66139)
User :
CE vs. WE compliance from -10 V to 10 V
Electrode connection : standard
Potential control : Ewe
Ewe ctrl range : min = -10.00 V, max = 10.00 V
Safety Limits :
	Do not start on E overload
Acquisition started on : 12/04/2025 13:09:36.565
Technique started on : 12/04/2025 13:09:38.159
Loaded Setting File :  C:\Users\Celltest\OneDrive - store-dot.com\Documents\EC-Lab\Data\@Biologic Test Protocols\anode half cell EIS SOC00.mps
Saved on :
	File : 19492_R316_UA628_SOC00_C02.mpr
	Directory : C:\Users\Celltest\OneDrive - store-dot.com\Documents\EC-Lab\Data\Charmaine\
	Host : 169.254.61.224
Device : VMP-3e (SN .003165)
Address : USB
EC-LAB for windows v11.62 (software)
Internet server v27.00 (firmware)
Command interpretor v12.03 (firmware)
Electrode material :
Initial state :
Electrolyte :
Comments :
Electrode surface area : 0.001 cm²
Characteristic mass : 0.001 g
Equivalent Weight : 0.000 g/eq.
Density : 0.000 g/cm3
Volume (V) : 0.001 cm³
Record Ece
Cycle Definition : Charge/Discharge alternance
Mode                Single sine
E (V)               0.0000
vs.                 Eoc
tE (h:m:s)          0:00:0.0000
record              0
dI                  0.000
unit dI             mA
dt (s)              0.000
fi                  100.000
unit fi             kHz
ff                  10.000
unit ff             mHz
Nd                  6
Points              per decade
spacing             Logarithmic
Va (mV)             5.0
pw                  0.10
Na                  2
corr                0
E range min (V)     -10.000
E range max (V)     10.000
I Range             Auto
Bandwidth           5
nc cycles           0
goto Ns'            0
nr cycles           0
inc. cycle          0

freq/Hz	Re(Z)/Ohm	-Im(Z)/Ohm	|Z|/Ohm	Phase(Z)/deg	time/s	<Ewe>/V	<I>/mA	Cs/µF	Cp/µF	cycle number	I Range	|Ewe|/V	|I|/A	Ns	(Q-Qo)/mA.h	<Ece>/V	|Ece|/V	Phase(Zce)/deg	|Zce|/Ohm	Re(Zce)/Ohm	-Im(Zce)/Ohm	Phase(Zwe-ce)/deg	|Zwe-ce|/Ohm	Re(Zwe-ce)/Ohm	-Im(Zwe-ce)/Ohm	Re(Y)/Ohm-1	Im(Y)/Ohm-1	|Y|/Ohm-1	Phase(Y)/deg	Re(C)/nF	Im(C)/nF	|C|/nF	Phase(C)/deg	Re(M)	Im(M)	|M|	Phase(M)/deg	Re(Permittivity)	Im(Permittivity)	|Permittivity|	Phase(Permittivity)/deg	Re(Resistivity)/Ohm.cm	Im(Resistivity)/Ohm.cm	|Resistivity|/Ohm.cm	Phase(Resistivity)/deg	Re(Conductivity)/mS/cm	Im(Conductivity)/mS/cm	|Conductivity|/mS/cm	Phase(Conductivity)/deg	Tan(Delta)	Loss Angle(Delta)/deg	dq/mA.h	Pwe/W	Pce/W	Pwe-ce/W	<Ewe-Ece>/V	Rwe/Ohm	Rce/Ohm	Rwe-ce/Ohm		Ewe-Ece/V
100004	1.05756	0.392033	1.12789	-20.3394	1.59353	0.217925	0.0272291	4.05959	0.49045	1	9	0.00477488	0.00423347	0	-3.28232e-06	0.000307323	1.94347e-05	23.7844	0.00459073	0.00420084	-0.00185142	-20.1776	1.13119	1.06176	0.390181	0.831333	0.30817	0.886613	20.3394	490.45	1323.06	1411.04	-69.6606	0.0000000E+000	0.0000000E+000	0.0000000E+000	69.6606	0.0000000E+000	0.0000000E+000	0.0000000E+000	-69.6606	0.0000000E+000	0.0000000E+000	0.0000000E+000	-20.3394	0.0000000E+000	0.0000000E+000	0.0000000E+000	20.3394	2.69764	69.6606	-3.28232e-06	5.93389e-06	8.36813e-09	5.92553e-06	0.217618	8003.39	11.2866	7992.1
68132	1.15464	0.470154	1.24669	-22.1556	2.10055	0.217877	0.0174706	4.96854	0.706632	1	9	0.00515608	0.00413582	0	-4.15265e-06	0.000250051	7.75605e-06	11.3808	0.00187534	0.00183846	-0.000370058	-22.108	1.24825	1.15648	0.469784	0.742899	0.3025	0.802125	22.1556	706.632	1735.4	1873.75	-67.8444	0.0000000E+000	0.0000000E+000	0.0000000E+000	67.8444	0.0000000E+000	0.0000000E+000	0.0000000E+000	-67.8444	0.0000000E+000	0.0000000E+000	0.0000000E+000	-22.1556	0.0000000E+000	0.0000000E+000	0.0000000E+000	22.1556	2.45587	67.8444	-8.70335e-07	3.80646e-06	4.36855e-09	3.80209e-06	0.217627	12471.1	14.3126	12456.7
46420.4	1.27352	0.532591	1.3804	-22.6949	2.60754	0.21786	0.0107291	6.43751	0.958286	1	9	0.00508311	0.00368234	0	-5.52695e-06	9.7324e-05	1.66556e-05	-8.4125	0.00452311	0.00447444	0.000661726	-22.6487	1.38478	1.27799	0.533253	0.668337	0.279501	0.724428	22.6949	958.286	2291.43	2483.74	-67.3051	0.0000000E+000	0.0000000E+000	0.0000000E+000	67.3051	0.0000000E+000	0.0000000E+000	0.0000000E+000	-67.3051	0.0000000E+000	0.0000000E+000	0.0000000E+000	-22.6949	0.0000000E+000	0.0000000E+000	0.0000000E+000	22.6949	2.39118	67.3051	-1.3743e-06	2.33745e-06	1.0442e-09	2.33641e-06	0.217763	20305.5	9.07101	20296.4
31621.1	1.40703	0.594534	1.52749	-22.9062	3.11454	0.217857	0.00856886	8.46576	1.28252	1	9	0.00506324	0.00331475	0	-1.2798e-05	-0.000169948	3.71172e-05	-44.8373	0.0111976	0.00794032	0.00789536	-23.062	1.53788	1.41497	0.602429	0.603045	0.254813	0.65467	22.9062	1282.52	3035.24	3295.08	-67.0938	0.0000000E+000	0.0000000E+000	0.0000000E+000	67.0938	0.0000000E+000	0.0000000E+000	0.0000000E+000	-67.0938	0.0000000E+000	0.0000000E+000	0.0000000E+000	-22.9062	0.0000000E+000	0.0000000E+000	0.0000000E+000	22.9062	2.36662	67.0938	-7.271e-06	1.86678e-06	-1.45626e-09	1.86824e-06	0.218027	25424.2	19.8332	25444.1
21544.7	1.5494	0.661993	1.6849	-23.1349	3.49752	0.217846	0.0140068	11.159	1.72261	1	9	0.00546415	0.00324302	0	-2.58307e-06	9.7324e-05	7.11071e-06	-137.341	0.00219262	-0.00161245	0.0014858	-23.203	1.684	1.54779	0.663478	0.545779	0.233188	0.593508	23.1349	1722.61	4031.78	4384.36	-66.8651	0.0000000E+000	0.0000000E+000	0.0000000E+000	66.8651	0.0000000E+000	0.0000000E+000	0.0000000E+000	-66.8651	0.0000000E+000	0.0000000E+000	0.0000000E+000	-23.1349	0.0000000E+000	0.0000000E+000	0.0000000E+000	23.1349	2.34051	66.8651	1.02149e-05	3.05131e-06	1.36319e-09	3.04995e-06	0.217749	15552.9	6.94836	15546
14678.6	1.7087	0.738574	1.86149	-23.3761	4.00452	0.217839	0.0111388	14.6805	2.31104	1	9	0.00505857	0.00271748	0	-7.10091e-06	5.91423e-05	5.77634e-06	-73.3367	0.00212562	0.000609517	0.00203636	-23.4261	1.86286	1.70931	0.74061	0.49311	0.213143	0.537203	23.3761	2311.04	5346.62	5824.71	-66.6239	0.0000000E+000	0.0000000E+000	0.0000000E+000	66.6239	0.0000000E+000	0.0000000E+000	0.0000000E+000	-66.6239	0.0000000E+000	0.0000000E+000	0.0000000E+000	-23.3761	0.0000000E+000	0.0000000E+000	0.0000000E+000	23.3761	2.31351	66.6239	-4.51784e-06	2.42647e-06	6.58776e-10	2.42581e-06	0.21778	19556.7	5.30957	19551.4
10002.2	1.88268	0.824682	2.05538	-23.6552	4.38754	0.217838	0.0115113	19.2946	3.10617	1	9	0.00544446	0.00264888	0	-3.4979e-06	7.82332e-05	8.01063e-06	5.9834	0.00302416	0.00300768	-0.000315239	-23.6135	2.05801	1.88569	0.824367	0.445648	0.19521	0.486528	23.6552	3106.17	7091.14	7741.61	-66.3448	0.0000000E+000	0.0000000E+000	0.0000000E+000	66.3448	0.0000000E+000	0.0000000E+000	0.0000000E+000	-66.3448	0.0000000E+000	0.0000000E+000	0.0000000E+000	-23.6552	0.0000000E+000	0.0000000E+000	0.0000000E+000	23.6552	2.28292	66.3448	3.60301e-06	2.50759e-06	9.00564e-10	2.50669e-06	0.21776	18923.9	6.79622	18917.1
6810.42	2.10023	0.890866	2.28136	-22.9855	4.89454	0.217831	0.0149006	26.2321	4.00011	1	9	0.0049848	0.00218502	0	5.1707e-06	2.09606e-05	0.000112877	-149.346	0.0516597	-0.044441	0.0263387	-24.0444	2.25112	2.05579	0.917205	0.403533	0.171169	0.438335	22.9855	4000.11	9430.3	10243.6	-67.0145	0.0000000E+000	0.0000000E+000	0.0000000E+000	67.0145	0.0000000E+000	0.0000000E+000	0.0000000E+000	-67.0145	0.0000000E+000	0.0000000E+000	0.0000000E+000	-22.9855	0.0000000E+000	0.0000000E+000	0.0000000E+000	22.9855	2.35751	67.0145	8.6686e-06	3.24582e-06	3.12327e-10	3.24551e-06	0.21781	14618.9	1.40669	14617.5
4646	2.27364	1.04225	2.50114	-24.627	5.28764	0.217838	0.0159808	32.8678	5.70736	1	9	0.00525683	0.00210178	0	4.73412e-06	2.09606e-05	1.17314e-05	-27.2409	0.00558165	0.00496259	0.00255491	-24.6328	2.50672	2.2786	1.0448	0.36345	0.166608	0.399818	24.627	5707.36	12450.5	13696.3	-65.373	0.0000000E+000	0.0000000E+000	0.0000000E+000	65.373	0.0000000E+000	0.0000000E+000	0.0000000E+000	-65.373	0.0000000E+000	0.0000000E+000	0.0000000E+000	-24.627	0.0000000E+000	0.0000000E+000	0.0000000E+000	24.627	2.18148	65.373	-4.36576e-07	3.48122e-06	3.34967e-10	3.48088e-06	0.217817	13631.3	1.31162	13630
3163.08	2.4902	1.17688	2.75429	-25.2955	5.83968	0.21784	0.00946272	42.7543	7.80584	1	9	0.00524641	0.00190481	0	5.56935e-06	0.000326414	4.6647e-06	67.5323	0.0024489	0.000935877	-0.00226302	-25.2447	2.75417	2.49114	1.17461	0.328257	0.155135	0.363069	25.2955	7805.84	16516.7	18268.4	-64.7045	0.0000000E+000	0.0000000E+000	0.0000000E+000	64.7045	0.0000000E+000	0.0000000E+000	0.0000000E+000	-64.7045	0.0000000E+000	0.0000000E+000	0.0000000E+000	-25.2955	0.0000000E+000	0.0000000E+000	0.0000000E+000	25.2955	2.11594	64.7045	8.35228e-07	2.06136e-06	3.08877e-09	2.05827e-06	0.217513	23020.8	34.4947	22986.3
2155.69	2.74553	1.36817	3.06754	-26.4882	6.50481	0.217817	-0.00830358	53.9629	10.7348	1	9	0.00510424	0.00166395	0	7.59261e-06	-3.63119e-05	6.16857e-06	-104.029	0.00370719	-0.000898651	0.00359662	-26.5558	3.06834	2.74463	1.37176	0.291773	0.145398	0.325994	26.4882	10734.8	21541.7	24068.2	-63.5118	0.0000000E+000	0.0000000E+000	0.0000000E+000	63.5118	0.0000000E+000	0.0000000E+000	0.0000000E+000	-63.5118	0.0000000E+000	0.0000000E+000	0.0000000E+000	-26.4882	0.0000000E+000	0.0000000E+000	0.0000000E+000	26.4882	2.00672	63.5118	2.02326e-06	-1.80866e-06	3.01519e-10	-1.80896e-06	0.217853	26231.7	4.37304	26236.1
1468.59	3.00032	1.59938	3.39999	-28.0608	6.95506	0.217822	0.00447177	67.759	14.994	1	9	0.00517752	0.0015228	0	7.17147e-06	5.91423e-05	5.10969e-06	-144.428	0.00335545	-0.00272927	0.00195196	-28.1115	3.39851	2.99759	1.60134	0.259544	0.138356	0.294118	28.0608	14994	28127.5	31874.4	-61.9392	0.0000000E+000	0.0000000E+000	0.0000000E+000	61.9392	0.0000000E+000	0.0000000E+000	0.0000000E+000	-61.9392	0.0000000E+000	0.0000000E+000	0.0000000E+000	-28.0608	0.0000000E+000	0.0000000E+000	0.0000000E+000	28.0608	1.87592	61.9392	-4.21139e-07	9.7405e-07	2.64471e-10	9.73785e-07	0.217763	48710.4	13.2257	48697.2
1000.32	3.30229	1.90924	3.81449	-30.0347	7.65081	0.21782	-0.0106166	83.3336	20.8771	1	10	0.00514566	0.00134898	0	6.62396e-06	0.000135506	5.13202e-06	47.0457	0.00380437	0.00259235	-0.00278441	-29.979	3.81534	3.30488	1.90646	0.226956	0.131217	0.262158	30.0347	20877.1	36109.7	41710.5	-59.9653	0.0000000E+000	0.0000000E+000	0.0000000E+000	59.9653	0.0000000E+000	0.0000000E+000	0.0000000E+000	-59.9653	0.0000000E+000	0.0000000E+000	0.0000000E+000	-30.0347	0.0000000E+000	0.0000000E+000	0.0000000E+000	30.0347	1.72963	59.9653	-5.47508e-07	-2.31251e-06	-1.43861e-09	-2.31108e-06	0.217685	20516.9	12.7636	20504.2
681.09	3.65966	2.31611	4.33099	-32.3287	8.1016	0.217836	-0.0109333	100.892	28.8537	1	10	0.00500688	0.00115606	0	4.25281e-06	4.00515e-05	7.1104e-06	-62.2087	0.00615055	0.00286771	0.00544109	-32.3692	4.33632	3.66253	2.32155	0.195104	0.123477	0.230894	32.3287	28853.7	45591.3	53954.6	-57.6713	0.0000000E+000	0.0000000E+000	0.0000000E+000	57.6713	0.0000000E+000	0.0000000E+000	0.0000000E+000	-57.6713	0.0000000E+000	0.0000000E+000	0.0000000E+000	-32.3287	0.0000000E+000	0.0000000E+000	0.0000000E+000	32.3287	1.58009	57.6713	-2.37115e-06	-2.38166e-06	-4.37893e-10	-2.38122e-06	0.217796	19924.2	3.66327	19920.5
463.961	4.085	2.8729	4.99407	-35.118	8.5533	0.217824	-0.0105123	119.404	39.5139	1	10	0.00488324	0.000977807	0	3.55536e-06	9.7324e-05	6.71878e-06	139.346	0.00687128	-0.00521294	-0.00447657	-35.1104	4.98724	4.07979	2.86843	0.163788	0.115189	0.200237	35.118	39513.9	56185.1	68688.5	-54.882	0.0000000E+000	0.0000000E+000	0.0000000E+000	54.882	0.0000000E+000	0.0000000E+000	0.0000000E+000	-54.882	0.0000000E+000	0.0000000E+000	0.0000000E+000	-35.118	0.0000000E+000	0.0000000E+000	0.0000000E+000	35.118	1.42191	54.882	-6.97449e-07	-2.28984e-06	-1.0231e-09	-2.28882e-06	0.217727	20720.9	9.25809	20711.6
316.316	4.65468	3.60556	5.88779	-37.7618	9.00101	0.217834	-0.0107247	139.549	52.332	1	10	0.00481055	0.000817038	0	1.68583e-06	0.000326414	3.77954e-06	15.2742	0.00462591	0.00446251	-0.00121864	-37.7258	5.89057	4.65914	3.60435	0.134272	0.104008	0.169843	37.7618	52332	67559.1	85456.8	-52.2382	0.0000000E+000	0.0000000E+000	0.0000000E+000	52.2382	0.0000000E+000	0.0000000E+000	0.0000000E+000	-52.2382	0.0000000E+000	0.0000000E+000	0.0000000E+000	-37.7618	0.0000000E+000	0.0000000E+000	0.0000000E+000	37.7618	1.29097	52.2382	-1.86953e-06	-2.33619e-06	-3.50068e-09	-2.33269e-06	0.217507	20311.5	30.4358	20281
215.345	5.42363	4.53791	7.07166	-39.919	9.4506	0.217837	-0.0101175	162.866	67.0655	1	10	0.00474901	0.000671555	0	5.11629e-07	0.000173687	6.98496e-06	-37.4068	0.0104012	0.0082621	0.0063184	-39.9153	7.08205	5.43189	4.54423	0.108454	0.090743	0.141409	39.919	67065.5	80155.5	104512	-50.081	0.0000000E+000	0.0000000E+000	0.0000000E+000	50.081	0.0000000E+000	0.0000000E+000	0.0000000E+000	-50.081	0.0000000E+000	0.0000000E+000	0.0000000E+000	-39.919	0.0000000E+000	0.0000000E+000	0.0000000E+000	39.919	1.19518	50.081	-1.1742e-06	-2.20396e-06	-1.75727e-09	-2.2022e-06	0.217663	21530.8	17.1671	21513.7
146.737	6.51528	5.70886	8.66256	-41.2257	9.89747	0.217831	-0.010002	189.99	82.5157	1	10	0.00472163	0.000545061	0	7.94274e-08	-0.000169948	6.16687e-06	-80.424	0.0113141	0.00188217	0.0111564	-41.2729	8.67133	6.51716	5.72001	0.0868242	0.0760776	0.115439	41.2257	82515.7	94171.6	125208	-48.7743	0.0000000E+000	0.0000000E+000	0.0000000E+000	48.7743	0.0000000E+000	0.0000000E+000	0.0000000E+000	-48.7743	0.0000000E+000	0.0000000E+000	0.0000000E+000	-41.2257	0.0000000E+000	0.0000000E+000	0.0000000E+000	41.2257	1.14126	48.7743	-4.32202e-07	-2.17874e-06	1.69981e-09	-2.18044e-06	0.218001	21778.8	16.9914	21795.8
100.032	8.07365	6.99934	10.6852	-40.9232	10.3489	0.217829	-0.00962573	227.313	97.5368	1	10	0.00469591	0.000439476	0	-1.69871e-06	0.000440959	6.3802e-06	47.1604	0.0145177	0.00987131	-0.0106453	-40.8454	10.6857	8.08352	6.98869	0.0707132	0.0613038	0.093587	40.9232	97536.8	112508	148901	-49.0768	0.0000000E+000	0.0000000E+000	0.0000000E+000	49.0768	0.0000000E+000	0.0000000E+000	0.0000000E+000	-49.0768	0.0000000E+000	0.0000000E+000	0.0000000E+000	-40.9232	0.0000000E+000	0.0000000E+000	0.0000000E+000	40.9232	1.15349	49.0768	-1.77814e-06	-2.09676e-06	-4.24455e-09	-2.09252e-06	0.217388	22629.8	45.8105	22584
68.104	10.2757	8.18566	13.1375	-38.5409	10.8114	0.217834	-0.00936869	285.492	110.834	1	10	0.00467116	0.000355558	0	-3.2213e-06	9.7324e-05	7.85644e-06	44.4725	0.0220961	0.0157675	-0.0154798	-38.4453	13.1403	10.2915	8.17018	0.0595365	0.0474269	0.0761177	38.5409	110834	139133	177882	-51.4591	0.0000000E+000	0.0000000E+000	0.0000000E+000	51.4591	0.0000000E+000	0.0000000E+000	0.0000000E+000	-51.4591	0.0000000E+000	0.0000000E+000	0.0000000E+000	-38.5409	0.0000000E+000	0.0000000E+000	0.0000000E+000	38.5409	1.25533	51.4591	-1.52258e-06	-2.04082e-06	-9.11799e-10	-2.03991e-06	0.217737	23251.3	10.3882	23240.9
46.4415	13.1026	9.00977	15.9014	-34.5136	11.2477	0.217832	-0.0103745	380.364	122.111	1	10	0.00467146	0.000293777	0	-4.30544e-06	-1.72211e-05	6.63072e-06	-68.2922	0.0225706	0.00834825	0.02097	-34.5588	15.9202	13.111	9.03074	0.0518188	0.0356322	0.0628875	34.5136	122111	177583	215515	-55.4864	0.0000000E+000	0.0000000E+000	0.0000000E+000	55.4864	0.0000000E+000	0.0000000E+000	0.0000000E+000	-55.4864	0.0000000E+000	0.0000000E+000	0.0000000E+000	-34.5136	0.0000000E+000	0.0000000E+000	0.0000000E+000	34.5136	1.45427	55.4864	-1.08415e-06	-2.2599e-06	1.7866e-10	-2.26008e-06	0.21785	20996.9	1.65994	20998.6
31.6296	16.1904	9.06956	18.5576	-29.2567	11.9125	0.217833	-0.0102907	554.805	132.516	1	11	0.00468667	0.000252547	0	-5.8801e-06	9.7324e-05	1.62982e-05	-24.5077	0.0645354	0.0587211	0.0267703	-29.2403	18.622	16.2491	9.09633	0.0470124	0.0263355	0.0538862	29.2567	132516	236559	271147	-60.7433	0.0000000E+000	0.0000000E+000	0.0000000E+000	60.7433	0.0000000E+000	0.0000000E+000	0.0000000E+000	-60.7433	0.0000000E+000	0.0000000E+000	0.0000000E+000	-29.2567	0.0000000E+000	0.0000000E+000	0.0000000E+000	29.2567	1.78514	60.7433	-1.57465e-06	-2.24165e-06	-1.00153e-09	-2.24065e-06	0.217736	21168	9.45749	21158.5
21.5517	19.0075	8.24933	20.7205	-23.461	12.3334	0.217825	-0.0103626	895.198	141.892	1	11	0.00466373	0.000225078	0	-6.88423e-06	0.000192778	5.83201e-06	-21.19	0.025911	0.0241591	0.00936582	-23.4582	20.7463	19.0317	8.2587	0.0442718	0.0192141	0.0482615	23.461	141892	326938	356401	-66.539	0.0000000E+000	0.0000000E+000	0.0000000E+000	66.539	0.0000000E+000	0.0000000E+000	0.0000000E+000	-66.539	0.0000000E+000	0.0000000E+000	0.0000000E+000	-23.461	0.0000000E+000	0.0000000E+000	0.0000000E+000	23.461	2.30413	66.539	-1.00413e-06	-2.25724e-06	-1.99769e-09	-2.25524e-06	0.217632	21020.2	18.6032	21001.6
14.6852	21.2736	7.0236	22.4031	-18.2709	12.7941	0.217831	-0.0098056	1543.06	151.665	1	11	0.00466374	0.000208174	0	-7.15586e-06	-3.63119e-05	6.99952e-06	-78.493	0.0336234	0.00670747	0.0329476	-18.3455	22.4198	21.2803	7.05655	0.0423863	0.0139941	0.0446367	18.2709	151665	459375	483764	-71.7291	0.0000000E+000	0.0000000E+000	0.0000000E+000	71.7291	0.0000000E+000	0.0000000E+000	0.0000000E+000	-71.7291	0.0000000E+000	0.0000000E+000	0.0000000E+000	-18.2709	0.0000000E+000	0.0000000E+000	0.0000000E+000	18.2709	3.02888	71.7291	-2.71635e-07	-2.13596e-06	3.5606e-10	-2.13632e-06	0.217867	22214.9	3.70318	22218.6
10.0032	22.9071	5.6717	23.5988	-13.9065	13.2448	0.217834	-0.00984139	2805.22	162.037	1	11	0.00467343	0.000198036	0	-9.71301e-06	0.000116415	6.7405e-06	7.43888	0.0340367	0.0337502	-0.00440668	-13.8765	23.6305	22.9409	5.6673	0.0411329	0.0101843	0.042375	13.9065	162037	654441	674203	-76.0935	0.0000000E+000	0.0000000E+000	0.0000000E+000	76.0935	0.0000000E+000	0.0000000E+000	0.0000000E+000	-76.0935	0.0000000E+000	0.0000000E+000	0.0000000E+000	-13.9065	0.0000000E+000	0.0000000E+000	0.0000000E+000	13.9065	4.03885	76.0935	-2.55714e-06	-2.14379e-06	-1.14568e-09	-2.14265e-06	0.217718	22134.5	11.8291	22122.7
6.81719	23.9448	4.38329	24.3427	-10.3736	13.5845	0.217844	-0.00920494	5326.16	172.694	1	11	0.00466702	0.000191721	0	-8.77061e-06	0.000192778	6.74805e-06	-68.8918	0.0351972	0.0126755	0.0328355	-10.4442	24.3611	23.9575	4.41613	0.0404086	0.00739711	0.04108	10.3736	172694	943383	959060	-79.6264	0.0000000E+000	0.0000000E+000	0.0000000E+000	79.6264	0.0000000E+000	0.0000000E+000	0.0000000E+000	-79.6264	0.0000000E+000	0.0000000E+000	0.0000000E+000	-10.3736	0.0000000E+000	0.0000000E+000	0.0000000E+000	10.3736	5.46275	79.6264	9.42392e-07	-2.00524e-06	-1.77451e-09	-2.00347e-06	0.217651	23666	20.9429	23645.1
4.63925	24.5595	3.42126	24.7966	-7.93056	14.0694	0.217842	-0.00897824	10027.4	190.886	1	11	0.00465397	0.000187686	0	-1.07501e-05	0.000364596	8.63685e-06	94.3556	0.0460176	-0.0034949	-0.0458847	-7.82662	24.7869	24.556	3.37537	0.0399424	0.00556418	0.0403281	7.93056	190886	1.37027e+06	1.3835e+06	-82.0694	0.0000000E+000	0.0000000E+000	0.0000000E+000	82.0694	0.0000000E+000	0.0000000E+000	0.0000000E+000	-82.0694	0.0000000E+000	0.0000000E+000	0.0000000E+000	-7.93056	0.0000000E+000	0.0000000E+000	0.0000000E+000	7.93056	7.17849	82.0694	-1.97946e-06	-1.95583e-06	-3.27343e-09	-1.95256e-06	0.217477	24263.3	40.6088	24222.7
3.1604	25.0896	2.67206	25.2315	-6.07912	14.7625	0.217847	-0.00864491	18846.6	211.368	1	11	0.00467088	0.000185121	0	-1.4909e-05	2.09606e-05	5.52133e-06	-26.8292	0.0298255	0.026615	0.0134612	-6.10309	25.2594	25.1162	2.68552	0.0394101	0.0041972	0.039633	6.07912	211368	1.98466e+06	1.99588e+06	-83.9209	0.0000000E+000	0.0000000E+000	0.0000000E+000	83.9209	0.0000000E+000	0.0000000E+000	0.0000000E+000	-83.9209	0.0000000E+000	0.0000000E+000	0.0000000E+000	-6.07912	0.0000000E+000	0.0000000E+000	0.0000000E+000	6.07912	9.38961	83.9209	-4.15897e-06	-1.88327e-06	-1.81203e-10	-1.88309e-06	0.217826	25199.4	2.42462	25197
2.15577	25.4294	2.15789	25.5208	-4.85039	15.766	0.217853	-0.00842633	34212.8	244.601	1	11	0.00466594	0.000182829	0	-1.78787e-05	-7.44936e-05	5.30437e-06	-20.2106	0.0290128	0.0272264	0.0100231	-4.86762	25.5488	25.4567	2.16792	0.0390433	0.00331314	0.0391837	4.85039	244601	2.88247e+06	2.89283e+06	-85.1496	0.0000000E+000	0.0000000E+000	0.0000000E+000	85.1496	0.0000000E+000	0.0000000E+000	0.0000000E+000	-85.1496	0.0000000E+000	0.0000000E+000	0.0000000E+000	-4.85039	0.0000000E+000	0.0000000E+000	0.0000000E+000	4.85039	11.7844	85.1496	-2.96965e-06	-1.8357e-06	6.27708e-10	-1.83632e-06	0.217927	25853.8	8.84057	25862.6
1.46631	25.6773	1.85612	25.7443	-4.13453	17.2274	0.217848	-0.00841666	58477.3	303.976	1	11	0.00466377	0.000181157	0	-1.81893e-05	-7.44936e-05	2.03093e-06	53.709	0.0112109	0.00663556	-0.00903619	-4.11341	25.7502	25.6839	1.84709	0.0387425	0.00280056	0.0388436	4.13453	303977	4.20516e+06	4.21613e+06	-85.8655	0.0000000E+000	0.0000000E+000	0.0000000E+000	85.8655	0.0000000E+000	0.0000000E+000	0.0000000E+000	-85.8655	0.0000000E+000	0.0000000E+000	0.0000000E+000	-4.13453	0.0000000E+000	0.0000000E+000	0.0000000E+000	4.13453	13.8338	85.8655	-3.10592e-07	-1.83355e-06	6.26987e-10	-1.83418e-06	0.217922	25882.9	8.85073	25891.8
1.00006	25.9165	1.63302	25.9679	-3.60549	20.4008	0.21785	-0.00798869	97454.5	385.399	1	12	0.00466674	0.000179712	0	-1.91322e-05	5.91423e-05	2.27473e-06	-32.5163	0.0126577	0.0106734	0.006804	-3.61898	25.9789	25.9271	1.63982	0.0384329	0.00242169	0.0385091	3.60549	385399	6.1164e+06	6.12853e+06	-86.3945	0.0000000E+000	0.0000000E+000	0.0000000E+000	86.3945	0.0000000E+000	0.0000000E+000	0.0000000E+000	-86.3945	0.0000000E+000	0.0000000E+000	0.0000000E+000	-3.60549	0.0000000E+000	0.0000000E+000	0.0000000E+000	3.60549	15.8703	86.3945	-9.42947e-07	-1.74034e-06	-4.7247e-10	-1.73986e-06	0.217791	27269.8	7.40326	27262.4
0.681362	26.173	1.56918	26.22	-3.43102	23.5129	0.217845	-0.00738167	148857	533.15	1	12	0.00466823	0.000178041	0	-2.18726e-05	0.000440959	2.47131e-06	21.8663	0.0138806	0.0128819	-0.00516971	-3.41806	26.2326	26.1859	1.56401	0.0380705	0.00228248	0.0381388	3.43102	533150	8.89263e+06	8.90859e+06	-86.569	0.0000000E+000	0.0000000E+000	0.0000000E+000	86.569	0.0000000E+000	0.0000000E+000	0.0000000E+000	-86.569	0.0000000E+000	0.0000000E+000	0.0000000E+000	-3.43102	0.0000000E+000	0.0000000E+000	0.0000000E+000	3.43102	16.6794	86.569	-2.74038e-06	-1.60806e-06	-3.25501e-09	-1.60481e-06	0.217404	29511.7	59.7371	29451.9
0.464091	26.4214	1.59758	26.4697	-3.46019	28.0694	0.217843	-0.00645158	214662	781.957	1	12	0.00466674	0.000176305	0	-3.35093e-05	0.000173687	3.09482e-06	36.3572	0.0175537	0.0141367	-0.0104062	-3.43588	26.4832	26.4356	1.58717	0.0377102	0.00228016	0.0377791	3.46019	781957	1.29323e+07	1.29559e+07	-86.5398	0.0000000E+000	0.0000000E+000	0.0000000E+000	86.5398	0.0000000E+000	0.0000000E+000	0.0000000E+000	-86.5398	0.0000000E+000	0.0000000E+000	0.0000000E+000	-3.46019	0.0000000E+000	0.0000000E+000	0.0000000E+000	3.46019	16.5384	86.5398	-1.16367e-05	-1.40543e-06	-1.12056e-09	-1.40431e-06	0.217669	33765.8	26.9217	33738.9
0.316193	26.6684	1.70865	26.7231	-3.66594	34.7439	0.217844	-0.0056768	294588	1204.34	1	12	0.004665	0.000174568	0	-5.80419e-05	0.00023096	1.91628e-06	-14.1657	0.0109773	0.0106435	0.00268643	-3.67023	26.7339	26.679	1.71134	0.0373443	0.00239266	0.0374208	3.66594	1.20434e+06	1.87971e+07	1.88357e+07	-86.3341	0.0000000E+000	0.0000000E+000	0.0000000E+000	86.3341	0.0000000E+000	0.0000000E+000	0.0000000E+000	-86.3341	0.0000000E+000	0.0000000E+000	0.0000000E+000	-3.66594	0.0000000E+000	0.0000000E+000	0.0000000E+000	3.66594	15.6079	86.3341	-2.45326e-05	-1.23666e-06	-1.31111e-09	-1.23535e-06	0.217614	38374.5	40.6849	38333.8
0.215268	26.9613	1.93395	27.0306	-4.10284	44.5373	0.217847	-0.00533776	382292	1956.94	1	12	0.00466533	0.000172595	0	-9.53225e-05	9.7324e-05	2.45133e-06	-1.20562	0.0142028	0.0141997	0.000298834	-4.10132	27.0448	26.9755	1.93425	0.0369003	0.00264689	0.0369951	4.10284	1.95694e+06	2.72817e+07	2.73518e+07	-85.8972	0.0000000E+000	0.0000000E+000	0.0000000E+000	85.8972	0.0000000E+000	0.0000000E+000	0.0000000E+000	-85.8972	0.0000000E+000	0.0000000E+000	0.0000000E+000	-4.10284	0.0000000E+000	0.0000000E+000	0.0000000E+000	4.10284	13.941	85.8972	-3.72806e-05	-1.16282e-06	-5.19492e-10	-1.1623e-06	0.21775	40812.5	18.2331	40794.2
0.146929	27.3375	2.28921	27.4331	-4.78672	58.8756	0.217845	-0.00534498	473182	3294.94	1	12	0.00466628	0.000170096	0	-0.000138241	-3.63119e-05	1.54982e-06	-20.8517	0.00911141	0.00851466	0.0032432	-4.79198	27.4419	27.346	2.29245	0.0363251	0.00304183	0.0364523	4.78672	3.29494e+06	3.93478e+07	3.94855e+07	-85.2133	0.0000000E+000	0.0000000E+000	0.0000000E+000	85.2133	0.0000000E+000	0.0000000E+000	0.0000000E+000	-85.2133	0.0000000E+000	0.0000000E+000	0.0000000E+000	-4.78672	0.0000000E+000	0.0000000E+000	0.0000000E+000	4.78672	11.9419	85.2133	-4.29188e-05	-1.16438e-06	1.94086e-10	-1.16457e-06	0.217881	40756.9	6.79365	40763.7
0.0999041	27.7974	2.87056	27.9452	-5.89589	79.9528	0.217843	-0.00531832	554970	5855.85	1	12	0.00466865	0.000167065	0	-0.000172002	0.000421868	2.72285e-06	-26.8551	0.0162982	0.0145405	0.00736249	-5.90784	27.9604	27.8119	2.87793	0.035595	0.00367581	0.0357843	5.89589	5.85586e+06	5.67057e+07	5.70072e+07	-84.1041	0.0000000E+000	0.0000000E+000	0.0000000E+000	84.1041	0.0000000E+000	0.0000000E+000	0.0000000E+000	-84.1041	0.0000000E+000	0.0000000E+000	0.0000000E+000	-5.89589	0.0000000E+000	0.0000000E+000	0.0000000E+000	5.89589	9.68359	84.1041	-3.37608e-05	-1.15856e-06	-2.24363e-09	-1.15632e-06	0.217421	40960.8	79.3236	40881.5
0.0680626	28.2892	3.63899	28.5223	-7.33002	110.879	0.217838	-0.00512512	642585	10459.8	1	12	0.00466638	0.000163605	0	-0.000182859	0.000440959	2.07879e-06	-15.23	0.0127061	0.0122599	0.00333782	-7.33353	28.5348	28.3014	3.64233	0.0347738	0.00447315	0.0350603	7.33002	1.04598e+07	8.13137e+07	8.19837e+07	-82.67	0.0000000E+000	0.0000000E+000	0.0000000E+000	82.67	0.0000000E+000	0.0000000E+000	0.0000000E+000	-82.67	0.0000000E+000	0.0000000E+000	0.0000000E+000	-7.33002	0.0000000E+000	0.0000000E+000	0.0000000E+000	7.33002	7.7739	82.67	-1.08571e-05	-1.11645e-06	-2.25997e-09	-1.11419e-06	0.217398	42504.1	86.0388	42418.1
0.0464052	28.8791	4.52954	29.2322	-8.91392	156.231	0.217839	-0.00376836	757180	18179.6	1	12	0.00466634	0.00015963	0	-0.000141068	7.82332e-05	2.36285e-06	38.5613	0.0148021	0.0115743	-0.00922688	-8.89255	29.2422	28.8907	4.52032	0.0337957	0.00530067	0.0342088	8.91392	1.81796e+07	1.15908e+08	1.17325e+08	-81.0861	0.0000000E+000	0.0000000E+000	0.0000000E+000	81.0861	0.0000000E+000	0.0000000E+000	0.0000000E+000	-81.0861	0.0000000E+000	0.0000000E+000	0.0000000E+000	-8.91392	0.0000000E+000	0.0000000E+000	0.0000000E+000	8.91392	6.37573	81.0861	4.17912e-05	-8.20897e-07	-2.9481e-10	-8.20602e-07	0.217761	57807.5	20.7606	57786.8
0.0315922	29.7938	5.65975	30.3266	-10.756	222.835	0.217834	-0.00225998	890108	31002	1	12	0.00466658	0.000153877	0	-5.86806e-05	2.09606e-05	2.81894e-06	-6.84658	0.0183194	0.0181888	0.00218388	-10.7536	30.3449	29.812	5.66194	0.032395	0.00615388	0.0329743	10.756	3.1002e+07	1.63199e+08	1.66118e+08	-79.244	0.0000000E+000	0.0000000E+000	0.0000000E+000	79.244	0.0000000E+000	0.0000000E+000	0.0000000E+000	-79.244	0.0000000E+000	0.0000000E+000	0.0000000E+000	-10.756	0.0000000E+000	0.0000000E+000	0.0000000E+000	10.756	5.26416	79.244	8.23873e-05	-4.923e-07	-4.73706e-11	-4.92252e-07	0.217813	96387.5	9.2747	96378.2
0.0215268	31.0366	7.2468	31.8714	-13.1426	320.574	0.217835	-0.000607991	1.02022e+06	52745.4	1	12	0.00466712	0.000146436	0	1.19671e-05	0.000269142	2.78564e-06	5.48778	0.0190229	0.0189357	-0.00181923	-13.1317	31.8894	31.0555	7.24498	0.0305543	0.00713417	0.0313761	13.1426	5.27454e+07	2.25898e+08	2.31974e+08	-76.8574	0.0000000E+000	0.0000000E+000	0.0000000E+000	76.8574	0.0000000E+000	0.0000000E+000	0.0000000E+000	-76.8574	0.0000000E+000	0.0000000E+000	0.0000000E+000	-13.1426	0.0000000E+000	0.0000000E+000	0.0000000E+000	13.1426	4.2828	76.8574	7.06477e-05	-1.32442e-07	-1.63636e-10	-1.32278e-07	0.217566	358286	442.674	357844
0.0146812	32.4372	9.35197	33.7585	-16.0828	463.877	0.217828	0.000523801	1.15919e+06	88960.5	1	12	0.00466481	0.000138182	0	-3.06585e-05	0.000116415	1.96217e-06	-19.708	0.0141999	0.0133681	0.00478858	-16.0843	33.7726	32.4506	9.35676	0.0284629	0.00820612	0.0296222	16.0828	8.89605e+07	3.08559e+08	3.21127e+08	-73.9172	0.0000000E+000	0.0000000E+000	0.0000000E+000	73.9172	0.0000000E+000	0.0000000E+000	0.0000000E+000	-73.9172	0.0000000E+000	0.0000000E+000	0.0000000E+000	-16.0828	0.0000000E+000	0.0000000E+000	0.0000000E+000	16.0828	3.46849	73.9172	-4.26256e-05	1.14099e-07	6.09782e-11	1.14038e-07	0.217712	415861	222.25	415638
0.0100092	34.148	11.7486	36.1126	-18.9857	674.058	0.217829	0.00112232	1.35343e+06	143249	1	12	0.00466463	0.000129169	0	-0.000267378	9.7324e-05	1.45315e-06	16.6192	0.01125	0.01078	-0.0032176	-18.9753	36.1217	34.1588	11.7454	0.0261848	0.00900885	0.0276912	18.9857	1.43249e+08	4.16362e+08	4.40315e+08	-71.0143	0.0000000E+000	0.0000000E+000	0.0000000E+000	71.0143	0.0000000E+000	0.0000000E+000	0.0000000E+000	-71.0143	0.0000000E+000	0.0000000E+000	0.0000000E+000	-18.9857	0.0000000E+000	0.0000000E+000	0.0000000E+000	18.9857	2.90656	71.0143	-0.000236719	2.44473e-07	1.09228e-10	2.44364e-07	0.217731	194088	86.717	194002