File: txt/19501_R316_UA716_SOC00_C03.mpt
EC-Lab ASCII FILE
Nb header lines : 65

Potentio Electrochemical Impedance Spectroscopy

Run on channel : 3 (SN 65921)
User :
CE vs. WE compliance from -10 V to 10 V
Electrode connection : standard
Potential control : Ewe
Ewe ctrl range : min = -10.00 V, max = 10.00 V
Safety Limits :
	Do not start on E overload
Acquisition started on : 12/04/2025 15:14:48.653
Technique started on : 12/04/2025 15:14:50.380
Loaded Setting File :  C:\Users\Celltest\OneDrive - store-dot.com\Documents\EC-Lab\Data\@Biologic Test Protocols\anode half cell EIS SOC00.mps
Saved on :
	File : 19501_R316_UA716_SOC00_C03.mpr
	Directory : C:\Users\Celltest\OneDrive - store-dot.com\Documents\EC-Lab\Data\Charmaine\
	Host : 169.254.61.224
Device : VMP-3e (SN .003165)
Address : USB
EC-LAB for windows v11.62 (software)
Internet server v27.00 (firmware)
Command interpretor v12.03 (firmware)
Electrode material :
Initial state :
Electrolyte :
Comments :
Electrode surface area : 0.001 cm²
Characteristic mass : 0.001 g
Equivalent Weight : 0.000 g/eq.
Density : 0.000 g/cm3
Volume (V) : 0.001 cm³
Record Ece
Cycle Definition : Charge/Discharge alternance
Mode                Single sine
E (V)               0.0000
vs.                 Eoc
tE (h:m:s)          0:00:0.0000
record              0
dI                  0.000
unit dI             mA
dt (s)              0.000
fi                  100.000
unit fi             kHz
ff                  10.000
unit ff             mHz
Nd                  6
Points              per decade
spacing             Logarithmic
Va (mV)             5.0
pw                  0.10
Na                  2
corr                0
E range min (V)     -10.000
E range max (V)     10.000
I Range             Auto
Bandwidth           5
nc cycles           0
goto Ns'            0
nr cycles           0
inc. cycle          0

freq/Hz	Re(Z)/Ohm	-Im(Z)/Ohm	|Z|/Ohm	Phase(Z)/deg	time/s	<Ewe>/V	<I>/mA	Cs/µF	Cp/µF	cycle number	I Range	|Ewe|/V	|I|/A	Ns	(Q-Qo)/mA.h	<Ece>/V	|Ece|/V	Phase(Zce)/deg	|Zce|/Ohm	Re(Zce)/Ohm	-Im(Zce)/Ohm	Phase(Zwe-ce)/deg	|Zwe-ce|/Ohm	Re(Zwe-ce)/Ohm	-Im(Zwe-ce)/Ohm	Re(Y)/Ohm-1	Im(Y)/Ohm-1	|Y|/Ohm-1	Phase(Y)/deg	Re(C)/nF	Im(C)/nF	|C|/nF	Phase(C)/deg	Re(M)	Im(M)	|M|	Phase(M)/deg	Re(Permittivity)	Im(Permittivity)	|Permittivity|	Phase(Permittivity)/deg	Re(Resistivity)/Ohm.cm	Im(Resistivity)/Ohm.cm	|Resistivity|/Ohm.cm	Phase(Resistivity)/deg	Re(Conductivity)/mS/cm	Im(Conductivity)/mS/cm	|Conductivity|/mS/cm	Phase(Conductivity)/deg	Tan(Delta)	Loss Angle(Delta)/deg	dq/mA.h	Pwe/W	Pce/W	Pwe-ce/W	<Ewe-Ece>/V	Rwe/Ohm	Rce/Ohm	Rwe-ce/Ohm		Ewe-Ece/V
100004	1.38675	0.472739	1.46511	-18.8241	1.72656	0.218913	0.0201321	3.36653	0.350495	1	9	0.00456605	0.00311652	0	-3.18057e-06	-3.58827e-05	3.63849e-05	90.7945	0.0116749	-0.000161892	-0.0116737	-18.3929	1.46124	1.38659	0.461065	0.646034	0.220231	0.682541	18.8241	350.495	1028.16	1086.26	-71.1759	0.0000000E+000	0.0000000E+000	0.0000000E+000	71.1759	0.0000000E+000	0.0000000E+000	0.0000000E+000	-71.1759	0.0000000E+000	0.0000000E+000	0.0000000E+000	-18.8241	0.0000000E+000	0.0000000E+000	0.0000000E+000	18.8241	2.93344	71.1759	-3.18057e-06	4.40718e-06	-7.22395e-10	4.40791e-06	0.218949	10873.8	1.78236	10875.6
68132	1.50811	0.53662	1.60074	-19.5867	2.23356	0.218902	0.00913054	4.35313	0.489209	1	9	0.00505387	0.00315721	0	-7.49858e-06	-0.000169541	2.18963e-05	62.2142	0.00693533	0.00323303	-0.00613566	-19.3411	1.60174	1.51135	0.530485	0.588563	0.209424	0.624711	19.5867	489.209	1374.87	1459.31	-70.4133	0.0000000E+000	0.0000000E+000	0.0000000E+000	70.4133	0.0000000E+000	0.0000000E+000	0.0000000E+000	-70.4133	0.0000000E+000	0.0000000E+000	0.0000000E+000	-19.5867	0.0000000E+000	0.0000000E+000	0.0000000E+000	19.5867	2.81039	70.4133	-4.318e-06	1.99869e-06	-1.548e-09	2.00024e-06	0.219071	23974.7	18.5686	23993.2
46420.4	1.6441	0.610013	1.75362	-20.3564	2.74054	0.218911	0.0181183	5.62047	0.680108	1	9	0.00507935	0.00289649	0	-8.14228e-06	7.86817e-05	1.5884e-05	96.1638	0.00548389	-0.000588815	-0.00545219	-20.1958	1.75118	1.64352	0.60456	0.534634	0.198366	0.570248	20.3564	680.109	1833.03	1955.13	-69.6436	0.0000000E+000	0.0000000E+000	0.0000000E+000	69.6436	0.0000000E+000	0.0000000E+000	0.0000000E+000	-69.6436	0.0000000E+000	0.0000000E+000	0.0000000E+000	-20.3564	0.0000000E+000	0.0000000E+000	0.0000000E+000	20.3564	2.6952	69.6436	-6.43702e-07	3.96629e-06	1.42558e-09	3.96486e-06	0.218832	12082.3	4.34267	12078
31621.1	1.79161	0.69662	1.92227	-21.2473	3.24752	0.218905	0.019349	7.22514	0.948874	1	9	0.00513067	0.00266906	0	-5.27055e-06	0.00011687	1.74602e-05	22.9353	0.00654171	0.00602456	-0.00254925	-21.1117	1.92697	1.79763	0.694071	0.484856	0.188524	0.520217	21.2473	948.874	2440.37	2618.35	-68.7527	0.0000000E+000	0.0000000E+000	0.0000000E+000	68.7527	0.0000000E+000	0.0000000E+000	0.0000000E+000	-68.7527	0.0000000E+000	0.0000000E+000	0.0000000E+000	-21.2473	0.0000000E+000	0.0000000E+000	0.0000000E+000	21.2473	2.57186	68.7527	2.87172e-06	4.23558e-06	2.26131e-09	4.23332e-06	0.218788	11313.5	6.04011	11307.5
21544.7	1.96265	0.790256	2.11578	-21.932	3.63055	0.218895	0.0101002	9.34787	1.30409	1	9	0.00517179	0.0024444	0	-2.59767e-06	-7.40708e-05	1.08149e-05	-45.2853	0.00442435	0.00311287	0.00314403	-21.9794	2.11984	1.96576	0.7934	0.438434	0.176534	0.47264	21.932	1304.09	3238.8	3491.49	-68.068	0.0000000E+000	0.0000000E+000	0.0000000E+000	68.068	0.0000000E+000	0.0000000E+000	0.0000000E+000	-68.068	0.0000000E+000	0.0000000E+000	0.0000000E+000	-21.932	0.0000000E+000	0.0000000E+000	0.0000000E+000	21.932	2.48357	68.068	2.67289e-06	2.21087e-06	-7.48126e-10	2.21162e-06	0.218969	21672.5	7.33363	21679.8
14678.6	2.15688	0.90063	2.33736	-22.6635	3.88952	0.218907	0.014911	12.039	1.78743	1	9	0.00454379	0.00194398	0	-4.08764e-07	0.000326905	1.00508e-05	-41.4214	0.00517021	0.00387696	0.00342057	-22.7042	2.34226	2.16076	0.904051	0.394797	0.164852	0.427833	22.6635	1787.43	4280.65	4638.84	-67.3365	0.0000000E+000	0.0000000E+000	0.0000000E+000	67.3365	0.0000000E+000	0.0000000E+000	0.0000000E+000	-67.3365	0.0000000E+000	0.0000000E+000	0.0000000E+000	-22.6635	0.0000000E+000	0.0000000E+000	0.0000000E+000	22.6635	2.39486	67.3365	2.1889e-06	3.26412e-06	4.87448e-09	3.25924e-06	0.21858	14680.9	21.9237	14658.9
10002.2	2.35689	1.00182	2.56097	-23.0283	4.27255	0.218914	0.012114	15.8831	2.43053	1	9	0.00486178	0.00189841	0	8.89075e-07	4.04936e-05	1.07697e-05	-130.379	0.00567302	-0.00367525	0.00432154	-23.1495	2.55929	2.35322	1.00614	0.35936	0.152749	0.390477	23.0283	2430.53	5718.12	6213.25	-66.9717	0.0000000E+000	0.0000000E+000	0.0000000E+000	66.9717	0.0000000E+000	0.0000000E+000	0.0000000E+000	-66.9717	0.0000000E+000	0.0000000E+000	0.0000000E+000	-23.0283	0.0000000E+000	0.0000000E+000	0.0000000E+000	23.0283	2.35262	66.9717	1.29784e-06	2.65192e-06	4.90539e-10	2.65143e-06	0.218873	18071.2	3.34271	18067.8
6810.42	2.60911	1.15823	2.85464	-23.9372	4.53156	0.218906	0.00939154	20.1768	3.32153	1	9	0.00472173	0.00165406	0	1.9385e-06	2.30547e-06	0.000103885	-27.2462	0.0628064	0.0558378	0.0287537	-24.0084	2.91734	2.66495	1.18698	0.320177	0.142132	0.350307	23.9372	3321.53	7482.32	8186.43	-66.0628	0.0000000E+000	0.0000000E+000	0.0000000E+000	66.0628	0.0000000E+000	0.0000000E+000	0.0000000E+000	-66.0628	0.0000000E+000	0.0000000E+000	0.0000000E+000	-23.9372	0.0000000E+000	0.0000000E+000	0.0000000E+000	23.9372	2.25268	66.0628	1.04942e-06	2.05586e-06	2.16519e-11	2.05584e-06	0.218903	23308.8	0.245484	23308.6
4646	2.84449	1.29731	3.12636	-24.5168	4.79661	0.218869	-0.0112318	26.4056	4.54681	1	9	0.00454587	0.00145404	0	5.09911e-07	0.000269622	1.43577e-05	-96.6119	0.00987433	-0.00113696	0.00980866	-24.6888	3.12941	2.84335	1.30712	0.291022	0.132729	0.31986	24.5168	4546.81	9969.33	10957.2	-65.4832	0.0000000E+000	0.0000000E+000	0.0000000E+000	65.4832	0.0000000E+000	0.0000000E+000	0.0000000E+000	-65.4832	0.0000000E+000	0.0000000E+000	0.0000000E+000	-24.5168	0.0000000E+000	0.0000000E+000	0.0000000E+000	24.5168	2.1926	65.4832	-1.42859e-06	-2.45829e-06	-3.02835e-09	-2.45526e-06	0.218599	19486.5	24.0052	19462.5
3163.08	3.14327	1.50368	3.48442	-25.5655	5.34864	0.218679	-0.02421	33.4623	6.23165	1	9	0.00496339	0.00142445	0	-1.64601e-06	-0.000112259	5.42438e-06	-3.38527	0.00380804	0.0038014	0.000224864	-25.5419	3.48795	3.14707	1.5039	0.258893	0.123849	0.286992	25.5655	6231.65	13026.6	14440.4	-64.4345	0.0000000E+000	0.0000000E+000	0.0000000E+000	64.4345	0.0000000E+000	0.0000000E+000	0.0000000E+000	-64.4345	0.0000000E+000	0.0000000E+000	0.0000000E+000	-25.5655	0.0000000E+000	0.0000000E+000	0.0000000E+000	25.5655	2.09039	64.4345	-2.15592e-06	-5.29421e-06	2.71779e-09	-5.29693e-06	0.218791	9032.6	4.63689	9037.24
2155.69	3.41682	1.73861	3.83372	-26.9687	6.04484	0.218841	-0.0179999	42.4652	8.73361	1	10	0.00510223	0.00133088	0	1.6744e-06	5.95877e-05	1.09659e-05	-107.345	0.00823957	-0.00245638	0.0078649	-27.09	3.83511	3.41436	1.74647	0.232478	0.118293	0.260843	26.9687	8733.61	17163.9	19258.1	-63.0313	0.0000000E+000	0.0000000E+000	0.0000000E+000	63.0313	0.0000000E+000	0.0000000E+000	0.0000000E+000	-63.0313	0.0000000E+000	0.0000000E+000	0.0000000E+000	-26.9687	0.0000000E+000	0.0000000E+000	0.0000000E+000	26.9687	1.96527	63.0313	3.32042e-06	-3.93913e-06	-1.07257e-09	-3.93805e-06	0.218782	12157.9	3.31044	12154.6
1468.59	3.76831	2.04131	4.28569	-28.4445	6.49611	0.218846	-0.0177799	53.0899	12.0444	1	10	0.00502342	0.00117214	0	4.71891e-07	-7.40708e-05	9.73694e-06	-63.8984	0.00830698	0.00365477	0.00745979	-28.5088	4.29246	3.77197	2.04877	0.205166	0.111139	0.233335	28.4445	12044.4	22234.4	25287.1	-61.5555	0.0000000E+000	0.0000000E+000	0.0000000E+000	61.5555	0.0000000E+000	0.0000000E+000	0.0000000E+000	-61.5555	0.0000000E+000	0.0000000E+000	0.0000000E+000	-28.4445	0.0000000E+000	0.0000000E+000	0.0000000E+000	28.4445	1.84603	61.5555	-1.20251e-06	-3.89106e-06	1.31697e-09	-3.89238e-06	0.21892	12308.6	4.16598	12312.8
1000.32	4.16557	2.43308	4.82409	-30.2889	6.94681	0.218854	-0.0174406	65.392	16.6344	1	10	0.00496637	0.00102949	0	-1.93661e-06	-3.58827e-05	8.39773e-06	-46.1847	0.00815715	0.00564749	0.005886	-30.3154	4.83194	4.17122	2.43897	0.178996	0.10455	0.207293	30.2889	16634.4	28479	32981.1	-59.7111	0.0000000E+000	0.0000000E+000	0.0000000E+000	59.7111	0.0000000E+000	0.0000000E+000	0.0000000E+000	-59.7111	0.0000000E+000	0.0000000E+000	0.0000000E+000	-30.2889	0.0000000E+000	0.0000000E+000	0.0000000E+000	30.2889	1.71206	59.7111	-2.4085e-06	-3.81694e-06	6.25815e-10	-3.81757e-06	0.21889	12548.5	2.05742	12550.6
681.09	4.61452	2.94933	5.47653	-32.5843	7.39752	0.218848	-0.016348	79.2305	22.9789	1	10	0.00493918	0.000901881	0	-3.2094e-06	0.00011687	8.52335e-06	110.405	0.00945063	-0.00329507	-0.00885759	-32.5247	5.46898	4.61123	2.94047	0.153857	0.0983361	0.182597	32.5843	22978.9	35952.7	42668.8	-57.4157	0.0000000E+000	0.0000000E+000	0.0000000E+000	57.4157	0.0000000E+000	0.0000000E+000	0.0000000E+000	-57.4157	0.0000000E+000	0.0000000E+000	0.0000000E+000	-32.5843	0.0000000E+000	0.0000000E+000	0.0000000E+000	32.5843	1.5646	57.4157	-1.27279e-06	-3.57774e-06	-1.91059e-09	-3.57583e-06	0.218732	13386.8	7.14886	13379.7
463.961	5.12368	3.61163	6.26865	-35.1796	7.84934	0.218842	-0.0172915	94.9808	31.5279	1	10	0.00489728	0.000781234	0	-5.67599e-06	0.00011687	4.49424e-06	55.1869	0.00575275	0.00328425	-0.00472312	-35.1271	6.26861	5.12696	3.60691	0.130387	0.0919085	0.159524	35.1796	31527.9	44727.3	54722.4	-54.8204	0.0000000E+000	0.0000000E+000	0.0000000E+000	54.8204	0.0000000E+000	0.0000000E+000	0.0000000E+000	-54.8204	0.0000000E+000	0.0000000E+000	0.0000000E+000	-35.1796	0.0000000E+000	0.0000000E+000	0.0000000E+000	35.1796	1.41866	54.8204	-2.46659e-06	-3.7841e-06	-2.02085e-09	-3.78208e-06	0.218725	12656.1	6.75882	12649.3
316.316	5.76787	4.53964	7.34007	-38.2048	8.29708	0.218844	-0.0174965	110.835	42.3956	1	10	0.00489071	0.000666303	0	-7.23703e-06	5.95877e-05	1.13855e-05	-52.7588	0.0170875	0.0103409	0.0136033	-38.2382	7.35661	5.77821	4.55324	0.107057	0.0842599	0.136239	38.2048	42395.5	53865.9	68548.7	-51.7952	0.0000000E+000	0.0000000E+000	0.0000000E+000	51.7952	0.0000000E+000	0.0000000E+000	0.0000000E+000	-51.7952	0.0000000E+000	0.0000000E+000	0.0000000E+000	-38.2048	0.0000000E+000	0.0000000E+000	0.0000000E+000	38.2048	1.27056	51.7952	-1.56104e-06	-3.82902e-06	-1.04258e-09	-3.82798e-06	0.218785	12507.9	3.40568	12504.5
215.345	6.60536	5.79555	8.78745	-41.2638	8.74757	0.218852	-0.0173288	127.524	55.4697	1	10	0.00487437	0.000554697	0	-9.10974e-06	4.04936e-05	5.75198e-06	-109.374	0.0103696	-0.00343986	0.00978241	-41.3265	8.79132	6.60192	5.80534	0.0855404	0.0750533	0.113799	41.2638	55469.7	63220.4	84105.3	-48.7362	0.0000000E+000	0.0000000E+000	0.0000000E+000	48.7362	0.0000000E+000	0.0000000E+000	0.0000000E+000	-48.7362	0.0000000E+000	0.0000000E+000	0.0000000E+000	-41.2638	0.0000000E+000	0.0000000E+000	0.0000000E+000	41.2638	1.13973	48.7362	-1.87271e-06	-3.79242e-06	-7.01703e-10	-3.79172e-06	0.218811	12629.4	2.33679	12627.1
146.737	7.83475	7.40839	10.7827	-43.3978	9.19352	0.218831	-0.0189434	146.405	69.1106	1	10	0.00486211	0.000450916	0	-1.18293e-05	-3.58827e-05	1.28354e-05	-55.4166	0.0284651	0.0161569	0.0234353	-43.4292	10.8106	7.8509	7.43182	0.0673856	0.0637185	0.0927408	43.3978	69110.6	73088	100589	-46.6022	0.0000000E+000	0.0000000E+000	0.0000000E+000	46.6022	0.0000000E+000	0.0000000E+000	0.0000000E+000	-46.6022	0.0000000E+000	0.0000000E+000	0.0000000E+000	-43.3978	0.0000000E+000	0.0000000E+000	0.0000000E+000	43.3978	1.05755	46.6022	-2.7196e-06	-4.14539e-06	6.79738e-10	-4.14607e-06	0.218867	11551.9	1.89421	11553.8
100.032	9.72326	9.39029	13.5174	-44.002	9.64485	0.218838	-0.0160162	169.435	81.7665	1	10	0.00485964	0.000359511	0	-1.34558e-05	-0.0003032	1.03899e-05	-120.243	0.0289002	-0.0145562	0.0249667	-44.1209	13.5243	9.70871	9.41526	0.0532142	0.0513919	0.0739789	44.002	81766.5	84665.9	117703	-45.998	0.0000000E+000	0.0000000E+000	0.0000000E+000	45.998	0.0000000E+000	0.0000000E+000	0.0000000E+000	-45.998	0.0000000E+000	0.0000000E+000	0.0000000E+000	-44.002	0.0000000E+000	0.0000000E+000	0.0000000E+000	44.002	1.03546	45.998	-1.62641e-06	-3.50496e-06	4.8561e-09	-3.50981e-06	0.219142	13663.6	18.9308	13682.5
68.104	12.443	11.5141	16.953	-42.7795	10.1074	0.218849	-0.0140511	202.963	93.6235	1	10	0.00485313	0.00028627	0	-1.49894e-05	-0.000112259	8.17213e-06	126.217	0.028547	-0.016867	-0.0230311	-42.761	16.925	12.4262	11.4911	0.0432946	0.0400624	0.0589866	42.7795	93623.5	101177	137848	-47.2205	0.0000000E+000	0.0000000E+000	0.0000000E+000	47.2205	0.0000000E+000	0.0000000E+000	0.0000000E+000	-47.2205	0.0000000E+000	0.0000000E+000	0.0000000E+000	-42.7795	0.0000000E+000	0.0000000E+000	0.0000000E+000	42.7795	1.08068	47.2206	-1.53362e-06	-3.07506e-06	1.57736e-09	-3.07664e-06	0.218961	15575.3	7.98935	15583.2
46.4415	16.3429	13.3033	21.0729	-39.1459	10.7837	0.218878	-0.0103324	257.606	102.665	1	11	0.00486084	0.000230668	0	-1.75303e-05	-0.000207729	5.18304e-06	-88.0633	0.0224697	0.000759355	0.0224569	-39.1919	21.0877	16.3437	13.3257	0.0368027	0.0299577	0.0474543	39.1459	102665	126123	162626	-50.8541	0.0000000E+000	0.0000000E+000	0.0000000E+000	50.8541	0.0000000E+000	0.0000000E+000	0.0000000E+000	-50.8541	0.0000000E+000	0.0000000E+000	0.0000000E+000	-39.1459	0.0000000E+000	0.0000000E+000	0.0000000E+000	39.1459	1.22849	50.8541	-2.5409e-06	-2.26154e-06	2.14635e-09	-2.26369e-06	0.219086	21183.6	20.1046	21203.7
31.6296	20.9717	14.1552	25.3018	-34.0182	11.2135	0.218881	-0.010388	355.476	111.261	1	11	0.00486043	0.000192098	0	-1.87927e-05	-9.31649e-05	1.27435e-05	-5.83362	0.0663386	0.0659951	0.00674266	-33.9474	25.3603	21.0377	14.162	0.0327589	0.0221113	0.0395229	34.0182	111261	164838	198873	-55.9818	0.0000000E+000	0.0000000E+000	0.0000000E+000	55.9818	0.0000000E+000	0.0000000E+000	0.0000000E+000	-55.9818	0.0000000E+000	0.0000000E+000	0.0000000E+000	-34.0182	0.0000000E+000	0.0000000E+000	0.0000000E+000	34.0182	1.48155	55.9818	-1.26244e-06	-2.27373e-06	9.67796e-10	-2.2747e-06	0.218974	21070.6	8.96852	21079.5
21.5517	25.7233	13.7791	29.1814	-28.1763	11.6344	0.218882	-0.0106084	535.943	119.494	1	11	0.00486831	0.000166829	0	-1.98982e-05	0.000269622	1.09871e-05	-31.422	0.0658581	0.0562001	0.0343343	-28.1836	29.2471	25.7795	13.8134	0.0302076	0.0161811	0.0342684	28.1763	119494	223077	253065	-61.8237	0.0000000E+000	0.0000000E+000	0.0000000E+000	61.8237	0.0000000E+000	0.0000000E+000	0.0000000E+000	-61.8237	0.0000000E+000	0.0000000E+000	0.0000000E+000	-28.1763	0.0000000E+000	0.0000000E+000	0.0000000E+000	28.1763	1.86684	61.8237	-1.10549e-06	-2.32199e-06	-2.86026e-09	-2.31913e-06	0.218613	20633	25.416	20607.6
14.6852	29.7084	12.3505	32.1734	-22.5738	12.0952	0.218882	-0.0097962	877.522	129.31	1	11	0.00485719	0.000150969	0	-2.04977e-05	2.30547e-06	1.61595e-05	87.0484	0.107038	0.00551159	-0.106896	-22.394	32.1376	29.714	12.2436	0.0287003	0.0119314	0.0310816	22.5738	129310	311049	336857	-67.4262	0.0000000E+000	0.0000000E+000	0.0000000E+000	67.4262	0.0000000E+000	0.0000000E+000	0.0000000E+000	-67.4262	0.0000000E+000	0.0000000E+000	0.0000000E+000	-22.5738	0.0000000E+000	0.0000000E+000	0.0000000E+000	22.5738	2.40545	67.4262	-5.9949e-07	-2.14421e-06	-2.25848e-11	-2.14419e-06	0.21888	22343.6	0.235343	22343.3
10.0032	32.8274	10.2909	34.4026	-17.4054	12.5458	0.218882	-0.0097865	1546.06	138.341	1	11	0.00485289	0.000141062	0	-2.17132e-05	-0.000112259	4.8701e-06	48.0932	0.0345246	0.0230597	-0.0256943	-17.3531	34.417	32.8505	10.2652	0.0277366	0.00869502	0.0290675	17.4054	138341	441300	462476	-72.5946	0.0000000E+000	0.0000000E+000	0.0000000E+000	72.5946	0.0000000E+000	0.0000000E+000	0.0000000E+000	-72.5946	0.0000000E+000	0.0000000E+000	0.0000000E+000	-17.4054	0.0000000E+000	0.0000000E+000	0.0000000E+000	17.4054	3.18994	72.5946	-1.21547e-06	-2.14208e-06	1.09862e-09	-2.14318e-06	0.218994	22365.7	11.4708	22377.1
6.81719	35.0827	8.39806	36.0739	-13.4621	12.8855	0.218877	-0.00984542	2779.94	150.664	1	11	0.00485507	0.000134587	0	-2.19608e-05	9.77758e-05	5.33485e-06	72.3932	0.0396387	0.01199	-0.0377818	-13.3993	36.0767	35.0947	8.36027	0.0269593	0.00645347	0.0277209	13.4621	150664	629394	647176	-76.5379	0.0000000E+000	0.0000000E+000	0.0000000E+000	76.5379	0.0000000E+000	0.0000000E+000	0.0000000E+000	-76.5379	0.0000000E+000	0.0000000E+000	0.0000000E+000	-13.4621	0.0000000E+000	0.0000000E+000	0.0000000E+000	13.4621	4.17748	76.5379	-2.47653e-07	-2.15493e-06	-9.62644e-10	-2.15397e-06	0.218779	22231.3	9.93109	22221.4
4.63925	36.5907	6.78717	37.2149	-10.5083	13.3694	0.218889	-0.00934834	5054.56	168.123	1	11	0.00484911	0.0001303	0	-2.46239e-05	-0.000131353	6.78681e-06	33.826	0.0520859	0.0432694	-0.0289948	-10.4523	37.2522	36.634	6.75818	0.0264203	0.00490067	0.026871	10.5083	168123	906379	921840	-79.4917	0.0000000E+000	0.0000000E+000	0.0000000E+000	79.4917	0.0000000E+000	0.0000000E+000	0.0000000E+000	-79.4917	0.0000000E+000	0.0000000E+000	0.0000000E+000	-10.5083	0.0000000E+000	0.0000000E+000	0.0000000E+000	10.5083	5.39116	79.4917	-2.66313e-06	-2.04625e-06	1.22793e-09	-2.04748e-06	0.21902	23414.7	14.0509	23428.8
3.1604	37.754	5.53931	38.1582	-8.34694	14.0625	0.218876	-0.00941211	9091.24	191.583	1	11	0.00485326	0.000127188	0	-2.71526e-05	0.000155058	5.1202e-06	49.6132	0.040257	0.0260843	-0.0306633	-8.29573	38.1796	37.7801	5.50864	0.0259291	0.00380434	0.0262067	8.34694	191583	1.30577e+06	1.31975e+06	-81.6531	0.0000000E+000	0.0000000E+000	0.0000000E+000	81.6531	0.0000000E+000	0.0000000E+000	0.0000000E+000	-81.6531	0.0000000E+000	0.0000000E+000	0.0000000E+000	-8.34694	0.0000000E+000	0.0000000E+000	0.0000000E+000	8.34694	6.81565	81.6531	-2.52863e-06	-2.06008e-06	-1.45942e-09	-2.05862e-06	0.21872	23254.7	16.4743	23238.2
2.15577	38.6405	4.6408	38.9182	-6.84852	15.0661	0.21888	-0.00870378	15908.4	226.206	1	11	0.00485774	0.000124819	0	-2.80842e-05	2.30547e-06	6.0855e-06	67.5976	0.0487545	0.0185808	-0.045075	-6.77939	38.9313	38.6591	4.59572	0.0255116	0.00306398	0.0256949	6.84852	226206	1.88346e+06	1.89699e+06	-83.1515	0.0000000E+000	0.0000000E+000	0.0000000E+000	83.1515	0.0000000E+000	0.0000000E+000	0.0000000E+000	-83.1515	0.0000000E+000	0.0000000E+000	0.0000000E+000	-6.84852	0.0000000E+000	0.0000000E+000	0.0000000E+000	6.84852	8.32627	83.1515	-9.31584e-07	-1.90508e-06	-2.00663e-11	-1.90507e-06	0.218878	25147.7	0.264882	25147.4
1.46631	39.3917	3.97684	39.5919	-5.76483	17.2534	0.218879	-0.00848833	27293.3	275.371	1	12	0.00486215	0.000122807	0	-3.00567e-05	-9.31649e-05	3.21438e-06	-36.6452	0.0261743	0.0210009	0.0156223	-5.78426	39.6144	39.4127	3.99246	0.0251299	0.00253702	0.0252577	5.76483	275371	2.72763e+06	2.7415e+06	-84.2352	0.0000000E+000	0.0000000E+000	0.0000000E+000	84.2352	0.0000000E+000	0.0000000E+000	0.0000000E+000	-84.2352	0.0000000E+000	0.0000000E+000	0.0000000E+000	-5.76483	0.0000000E+000	0.0000000E+000	0.0000000E+000	5.76483	9.90528	84.2352	-1.97258e-06	-1.85792e-06	7.90814e-10	-1.85871e-06	0.218973	25785.9	10.9756	25796.9
1.00006	40.044	3.46456	40.1936	-4.94485	19.3809	0.218875	-0.00798582	45935	341.292	1	12	0.00485858	0.000120879	0	-3.41707e-05	7.86817e-05	2.12383e-06	-15.7833	0.0175698	0.0169074	0.00477899	-4.94956	40.2109	40.0609	3.46934	0.024787	0.00214454	0.0248796	4.94485	341292	3.94472e+06	3.95945e+06	-85.0551	0.0000000E+000	0.0000000E+000	0.0000000E+000	85.0551	0.0000000E+000	0.0000000E+000	0.0000000E+000	-85.0551	0.0000000E+000	0.0000000E+000	0.0000000E+000	-4.94485	0.0000000E+000	0.0000000E+000	0.0000000E+000	4.94485	11.5582	85.0551	-4.11396e-06	-1.7479e-06	-6.28338e-10	-1.74727e-06	0.218796	27408	9.85267	27398.1
0.681362	40.6407	3.15547	40.763	-4.43973	22.4931	0.218873	-0.00740744	74024.8	443.583	1	12	0.00486255	0.000119288	0	-4.33859e-05	-0.000169541	2.0704e-06	-107.151	0.0173563	-0.00511814	0.0165845	-4.46353	40.7592	40.6355	3.17206	0.0244585	0.00189903	0.0245321	4.43973	443583	5.71309e+06	5.73028e+06	-85.5603	0.0000000E+000	0.0000000E+000	0.0000000E+000	85.5603	0.0000000E+000	0.0000000E+000	0.0000000E+000	-85.5603	0.0000000E+000	0.0000000E+000	0.0000000E+000	-4.43973	0.0000000E+000	0.0000000E+000	0.0000000E+000	4.43973	12.8794	85.5603	-9.21521e-06	-1.62129e-06	1.25587e-09	-1.62255e-06	0.219043	29547.8	22.8879	29570.6
0.464091	41.1805	2.98114	41.2883	-4.14053	27.0497	0.218885	-0.00682269	115036	599.715	1	12	0.00486225	0.000117763	0	-5.95837e-05	7.86817e-05	3.51884e-06	-21.305	0.0298806	0.0278386	0.0108566	-4.15276	41.3169	41.2084	2.99199	0.0241567	0.00174875	0.0242199	4.14053	599715	8.28429e+06	8.30597e+06	-85.8595	0.0000000E+000	0.0000000E+000	0.0000000E+000	85.8595	0.0000000E+000	0.0000000E+000	0.0000000E+000	-85.8595	0.0000000E+000	0.0000000E+000	0.0000000E+000	-4.14053	0.0000000E+000	0.0000000E+000	0.0000000E+000	4.14053	13.8137	85.8595	-1.61978e-05	-1.49338e-06	-5.36821e-10	-1.49285e-06	0.218806	32081.9	11.5324	32070.4
0.316193	41.7201	2.91949	41.8221	-4.00292	33.7231	0.218888	-0.0064506	172409	840.16	1	12	0.00485993	0.000116205	0	-8.11554e-05	2.30547e-06	2.07715e-06	43.9822	0.0178749	0.012862	-0.0124129	-3.98473	41.8341	41.733	2.90708	0.0238524	0.00166915	0.0239108	4.00292	840160	1.20061e+07	1.20354e+07	-85.9971	0.0000000E+000	0.0000000E+000	0.0000000E+000	85.9971	0.0000000E+000	0.0000000E+000	0.0000000E+000	-85.9971	0.0000000E+000	0.0000000E+000	0.0000000E+000	-4.00292	0.0000000E+000	0.0000000E+000	0.0000000E+000	4.00292	14.2902	85.9971	-2.15717e-05	-1.41196e-06	-1.48717e-11	-1.41195e-06	0.218886	33933	0.357404	33932.7
0.215268	42.306	3.07485	42.4176	-4.15701	43.5166	0.218886	-0.00625743	240446	1263.49	1	12	0.00486348	0.000114657	0	-0.000104158	-0.000207729	4.08047e-06	-34.0192	0.0355884	0.0294975	0.0199107	-4.18093	42.4485	42.3355	3.09476	0.0235131	0.00170896	0.0235751	4.15701	1.26349e+06	1.7384e+07	1.74299e+07	-85.843	0.0000000E+000	0.0000000E+000	0.0000000E+000	85.843	0.0000000E+000	0.0000000E+000	0.0000000E+000	-85.843	0.0000000E+000	0.0000000E+000	0.0000000E+000	-4.15701	0.0000000E+000	0.0000000E+000	0.0000000E+000	4.15701	13.7587	85.843	-2.3003e-05	-1.36967e-06	1.29985e-09	-1.37097e-06	0.219094	34980.3	33.1972	35013.5
0.146929	42.8271	3.41442	42.963	-4.5583	57.8547	0.218884	-0.00597476	317246	2003.74	1	12	0.00486019	0.000113125	0	-0.000121797	0.000231434	3.99541e-06	-1.75019	0.0353186	0.0353021	0.00107869	-4.556	42.9983	42.8624	3.4155	0.0232022	0.00184981	0.0232758	4.5583	2.00374e+06	2.51329e+07	2.52126e+07	-85.4417	0.0000000E+000	0.0000000E+000	0.0000000E+000	85.4417	0.0000000E+000	0.0000000E+000	0.0000000E+000	-85.4417	0.0000000E+000	0.0000000E+000	0.0000000E+000	-4.5583	0.0000000E+000	0.0000000E+000	0.0000000E+000	4.5583	12.543	85.4417	-1.76388e-05	-1.30778e-06	-1.38276e-09	-1.3064e-06	0.218653	36634.8	38.7353	36596.1
0.0999041	43.3188	3.97219	43.5005	-5.23918	78.9308	0.218881	-0.00530112	401058	3344.09	1	12	0.00486126	0.000111752	0	-0.000127795	4.04936e-05	2.78737e-06	5.50992	0.0249425	0.0248273	-0.00239493	-5.23306	43.525	43.3436	3.96979	0.0228922	0.00209914	0.0229882	5.23918	3.34409e+06	3.6469e+07	3.6622e+07	-84.7608	0.0000000E+000	0.0000000E+000	0.0000000E+000	84.7608	0.0000000E+000	0.0000000E+000	0.0000000E+000	-84.7608	0.0000000E+000	0.0000000E+000	0.0000000E+000	-5.23918	0.0000000E+000	0.0000000E+000	0.0000000E+000	5.23918	10.9055	84.7608	-5.99821e-06	-1.16032e-06	-2.14661e-10	-1.1601e-06	0.218841	41289.6	7.63869	41282
0.0680626	43.9125	4.6821	44.1614	-6.08607	109.857	0.218885	-0.00435093	499426	5613.91	1	12	0.00485933	0.000110035	0	-0.000123461	-5.49767e-05	2.58767e-06	20.6548	0.0235166	0.0220051	-0.0082952	-6.07235	44.1824	43.9345	4.6738	0.0225166	0.00240079	0.0226442	6.08607	5.61391e+06	5.26518e+07	5.29503e+07	-83.9139	0.0000000E+000	0.0000000E+000	0.0000000E+000	83.9139	0.0000000E+000	0.0000000E+000	0.0000000E+000	-83.9139	0.0000000E+000	0.0000000E+000	0.0000000E+000	-6.08607	0.0000000E+000	0.0000000E+000	0.0000000E+000	6.08607	9.37882	83.9139	4.33422e-06	-9.52353e-07	2.392e-10	-9.52593e-07	0.21894	50307.6	12.6356	50320.2
0.0464052	44.77	5.64329	45.1243	-7.18429	155.208	0.218888	-0.00274666	607744	9505.3	1	12	0.00486342	0.000107778	0	-0.000111374	5.95877e-05	2.74788e-06	5.65763	0.0254956	0.0253714	-0.00251346	-7.1771	45.1491	44.7954	5.64078	0.021987	0.00277148	0.022161	7.18429	9.5053e+06	7.54085e+07	7.60052e+07	-82.8157	0.0000000E+000	0.0000000E+000	0.0000000E+000	82.8157	0.0000000E+000	0.0000000E+000	0.0000000E+000	-82.8157	0.0000000E+000	0.0000000E+000	0.0000000E+000	-7.18429	0.0000000E+000	0.0000000E+000	0.0000000E+000	7.18429	7.93331	82.8157	1.20876e-05	-6.01211e-07	-1.63667e-10	-6.01047e-07	0.218828	79692.3	21.6946	79670.6
0.0315922	45.9025	7.12064	46.4516	-8.81774	221.813	0.218888	-0.00150769	707491	16624.9	1	12	0.00486238	0.000104676	0	-0.000123209	-3.58827e-05	3.2328e-06	39.9422	0.0308838	0.0236784	-0.0198278	-8.7891	46.4719	45.9262	7.10081	0.0212734	0.00330003	0.0215278	8.81774	1.66249e+07	1.07171e+08	1.08453e+08	-81.1823	0.0000000E+000	0.0000000E+000	0.0000000E+000	81.1823	0.0000000E+000	0.0000000E+000	0.0000000E+000	-81.1823	0.0000000E+000	0.0000000E+000	0.0000000E+000	-8.81774	0.0000000E+000	0.0000000E+000	0.0000000E+000	8.81774	6.44641	81.1823	-1.18358e-05	-3.30017e-07	5.41001e-11	-3.30071e-07	0.218924	145181	23.7997	145205
0.0215268	47.0531	9.19302	47.9427	-11.0549	319.552	0.218882	-0.000595639	804234	29570.2	1	12	0.00486014	0.000101374	0	-0.000204492	-0.000112259	1.22895e-06	-42.6709	0.012123	0.00891354	0.00821679	-11.0625	47.9531	47.062	9.20124	0.0204712	0.00399957	0.0208582	11.0549	2.95702e+07	1.5135e+08	1.54212e+08	-78.9451	0.0000000E+000	0.0000000E+000	0.0000000E+000	78.9451	0.0000000E+000	0.0000000E+000	0.0000000E+000	-78.9451	0.0000000E+000	0.0000000E+000	0.0000000E+000	-11.0549	0.0000000E+000	0.0000000E+000	0.0000000E+000	11.0549	5.11835	78.9451	-8.12823e-05	-1.30375e-07	6.68658e-11	-1.30441e-07	0.218994	367473	188.468	367662
0.0146812	48.4954	11.6268	49.8697	-13.4823	462.853	0.218887	-0.000181852	932390	50681.2	1	12	0.00485999	9.74536e-05	0	-0.000389002	0.00011687	2.6967e-06	29.7425	0.0276717	0.0240263	-0.013728	-13.4605	49.8899	48.5195	11.6131	0.0194996	0.00467507	0.0200522	13.4823	5.06812e+07	2.11391e+08	2.17381e+08	-76.5177	0.0000000E+000	0.0000000E+000	0.0000000E+000	76.5177	0.0000000E+000	0.0000000E+000	0.0000000E+000	-76.5177	0.0000000E+000	0.0000000E+000	0.0000000E+000	-13.4823	0.0000000E+000	0.0000000E+000	0.0000000E+000	13.4823	4.17099	76.5177	-0.000184511	-3.9805e-08	-2.1253e-11	-3.97838e-08	0.21877	1.20365e+06	642.664	1.20301e+06
0.0100092	50.7222	14.7537	52.8244	-16.2182	673.035	0.218884	-0.000180726	1.07776e+06	84072.3	1	12	0.00485945	9.19924e-05	0	-0.00065608	4.04936e-05	1.73111e-06	-39.3664	0.018818	0.0145483	0.0119358	-16.2262	52.8417	50.7368	14.7656	0.0181773	0.00528726	0.0189306	16.2182	8.40723e+07	2.89036e+08	3.01015e+08	-73.7818	0.0000000E+000	0.0000000E+000	0.0000000E+000	73.7818	0.0000000E+000	0.0000000E+000	0.0000000E+000	-73.7818	0.0000000E+000	0.0000000E+000	0.0000000E+000	-16.2182	0.0000000E+000	0.0000000E+000	0.0000000E+000	16.2182	3.43794	73.7818	-0.000267078	-3.9558e-08	-7.31825e-12	-3.95507e-08	0.218843	1.21114e+06	224.061	1.21091e+06