File: txt/19500_R316_UA715_SOC00_C02.mpt
EC-Lab ASCII FILE
Nb header lines : 65

Potentio Electrochemical Impedance Spectroscopy

Run on channel : 2 (SN 66139)
User :
CE vs. WE compliance from -10 V to 10 V
Electrode connection : standard
Potential control : Ewe
Ewe ctrl range : min = -10.00 V, max = 10.00 V
Safety Limits :
	Do not start on E overload
Acquisition started on : 12/04/2025 15:14:24.544
Technique started on : 12/04/2025 15:14:26.414
Loaded Setting File :  C:\Users\Celltest\OneDrive - store-dot.com\Documents\EC-Lab\Data\@Biologic Test Protocols\anode half cell EIS SOC00.mps
Saved on :
	File : 19500_R316_UA715_SOC00_C02.mpr
	Directory : C:\Users\Celltest\OneDrive - store-dot.com\Documents\EC-Lab\Data\Charmaine\
	Host : 169.254.61.224
Device : VMP-3e (SN .003165)
Address : USB
EC-LAB for windows v11.62 (software)
Internet server v27.00 (firmware)
Command interpretor v12.03 (firmware)
Electrode material :
Initial state :
Electrolyte :
Comments :
Electrode surface area : 0.001 cm²
Characteristic mass : 0.001 g
Equivalent Weight : 0.000 g/eq.
Density : 0.000 g/cm3
Volume (V) : 0.001 cm³
Record Ece
Cycle Definition : Charge/Discharge alternance
Mode                Single sine
E (V)               0.0000
vs.                 Eoc
tE (h:m:s)          0:00:0.0000
record              0
dI                  0.000
unit dI             mA
dt (s)              0.000
fi                  100.000
unit fi             kHz
ff                  10.000
unit ff             mHz
Nd                  6
Points              per decade
spacing             Logarithmic
Va (mV)             5.0
pw                  0.10
Na                  2
corr                0
E range min (V)     -10.000
E range max (V)     10.000
I Range             Auto
Bandwidth           5
nc cycles           0
goto Ns'            0
nr cycles           0
inc. cycle          0

freq/Hz	Re(Z)/Ohm	-Im(Z)/Ohm	|Z|/Ohm	Phase(Z)/deg	time/s	<Ewe>/V	<I>/mA	Cs/µF	Cp/µF	cycle number	I Range	|Ewe|/V	|I|/A	Ns	(Q-Qo)/mA.h	<Ece>/V	|Ece|/V	Phase(Zce)/deg	|Zce|/Ohm	Re(Zce)/Ohm	-Im(Zce)/Ohm	Phase(Zwe-ce)/deg	|Zwe-ce|/Ohm	Re(Zwe-ce)/Ohm	-Im(Zwe-ce)/Ohm	Re(Y)/Ohm-1	Im(Y)/Ohm-1	|Y|/Ohm-1	Phase(Y)/deg	Re(C)/nF	Im(C)/nF	|C|/nF	Phase(C)/deg	Re(M)	Im(M)	|M|	Phase(M)/deg	Re(Permittivity)	Im(Permittivity)	|Permittivity|	Phase(Permittivity)/deg	Re(Resistivity)/Ohm.cm	Im(Resistivity)/Ohm.cm	|Resistivity|/Ohm.cm	Phase(Resistivity)/deg	Re(Conductivity)/mS/cm	Im(Conductivity)/mS/cm	|Conductivity|/mS/cm	Phase(Conductivity)/deg	Tan(Delta)	Loss Angle(Delta)/deg	dq/mA.h	Pwe/W	Pce/W	Pwe-ce/W	<Ewe-Ece>/V	Rwe/Ohm	Rce/Ohm	Rwe-ce/Ohm		Ewe-Ece/V
100004	1.19758	0.402508	1.26341	-18.5775	1.86954	0.273861	-0.00390851	3.95393	0.401317	1	9	0.00494685	0.00391546	0	-4.29613e-06	-0.000131766	2.32486e-05	89.7979	0.00593765	2.09484e-05	-0.00593761	-18.3216	1.26155	1.1976	0.39657	0.750264	0.252164	0.791506	18.5775	401.317	1194.04	1259.67	-71.4225	0.0000000E+000	0.0000000E+000	0.0000000E+000	71.4225	0.0000000E+000	0.0000000E+000	0.0000000E+000	-71.4225	0.0000000E+000	0.0000000E+000	0.0000000E+000	-18.5775	0.0000000E+000	0.0000000E+000	0.0000000E+000	18.5775	2.9753	71.4225	-4.29613e-06	-1.07039e-06	5.1501e-10	-1.0709e-06	0.273993	70067.7	33.7126	70101.5
68132	1.29955	0.463859	1.37986	-19.6434	2.37653	0.273842	-0.0136297	5.03596	0.569098	1	9	0.00506598	0.00367138	0	-2.61387e-05	0.000192778	1.33842e-05	102.573	0.00364555	-0.000793567	-0.00355813	-19.5151	1.37792	1.29876	0.460301	0.682537	0.243623	0.724713	19.6434	569.098	1594.39	1692.91	-70.3566	0.0000000E+000	0.0000000E+000	0.0000000E+000	70.3566	0.0000000E+000	0.0000000E+000	0.0000000E+000	-70.3566	0.0000000E+000	0.0000000E+000	0.0000000E+000	-19.6434	0.0000000E+000	0.0000000E+000	0.0000000E+000	19.6434	2.80161	70.3566	-2.18425e-05	-3.73238e-06	-2.62751e-09	-3.72975e-06	0.273649	20091.5	14.144	20077.4
46420.4	1.4201	0.523241	1.51342	-20.2266	2.88552	0.273835	-0.00688819	6.55254	0.783235	1	9	0.00502621	0.00332108	0	-4.4163e-05	0.000135506	1.68608e-05	25.5205	0.0050769	0.00458155	-0.0021873	-20.0892	1.51697	1.42468	0.521054	0.620007	0.228444	0.660753	20.2266	783.235	2125.73	2265.43	-69.7734	0.0000000E+000	0.0000000E+000	0.0000000E+000	69.7734	0.0000000E+000	0.0000000E+000	0.0000000E+000	-69.7734	0.0000000E+000	0.0000000E+000	0.0000000E+000	-20.2266	0.0000000E+000	0.0000000E+000	0.0000000E+000	20.2266	2.71404	69.7734	-1.80244e-05	-1.88622e-06	-9.33389e-10	-1.88529e-06	0.273699	39754.2	19.6722	39734.5
31621.1	1.54653	0.596433	1.65755	-21.0896	3.39456	0.273839	-0.0138904	8.43881	1.09262	1	9	0.00514466	0.00310377	0	-4.2892e-05	-9.35844e-05	7.54401e-06	58.4569	0.0024306	0.00127154	-0.00207147	-21.007	1.658	1.5478	0.594361	0.562889	0.217083	0.603298	21.0896	1092.62	2833.12	3036.51	-68.9104	0.0000000E+000	0.0000000E+000	0.0000000E+000	68.9104	0.0000000E+000	0.0000000E+000	0.0000000E+000	-68.9104	0.0000000E+000	0.0000000E+000	0.0000000E+000	-21.0896	0.0000000E+000	0.0000000E+000	0.0000000E+000	21.0896	2.59297	68.9104	1.27106e-06	-3.80374e-06	1.29993e-09	-3.80504e-06	0.273933	19714.2	6.73734	19721
21544.7	1.6968	0.669208	1.82399	-21.524	3.77755	0.273835	-0.0101658	11.0387	1.48592	1	9	0.0052138	0.00285845	0	-4.42139e-05	0.000307323	1.71313e-05	51.6461	0.00599322	0.0037189	-0.00469984	-21.344	1.82574	1.70051	0.664508	0.510015	0.201147	0.548248	21.524	1485.92	3767.58	4050.02	-68.476	0.0000000E+000	0.0000000E+000	0.0000000E+000	68.476	0.0000000E+000	0.0000000E+000	0.0000000E+000	-68.476	0.0000000E+000	0.0000000E+000	0.0000000E+000	-21.524	0.0000000E+000	0.0000000E+000	0.0000000E+000	21.524	2.53553	68.476	-1.32198e-06	-2.78376e-06	-3.1242e-09	-2.78063e-06	0.273527	26936.8	30.231	26906.5
14678.6	1.85608	0.744573	1.99985	-21.8584	4.16052	0.27384	-0.0169074	14.5623	2.01859	1	9	0.00486668	0.00243352	0	-4.26027e-05	0.000154597	5.97423e-06	-84.0274	0.00245497	0.000255448	0.00244165	-21.9206	2.001	1.85633	0.747014	0.464088	0.186171	0.500037	21.8584	2018.59	5031.95	5421.73	-68.1416	0.0000000E+000	0.0000000E+000	0.0000000E+000	68.1416	0.0000000E+000	0.0000000E+000	0.0000000E+000	-68.1416	0.0000000E+000	0.0000000E+000	0.0000000E+000	-21.8584	0.0000000E+000	0.0000000E+000	0.0000000E+000	21.8584	2.49281	68.1416	1.61129e-06	-4.62991e-06	-2.61382e-09	-4.6273e-06	0.273685	16196.5	9.14374	16187.4
10002.2	2.0288	0.837997	2.19505	-22.4431	4.54353	0.273832	-0.0138532	18.9881	2.76742	1	9	0.00484399	0.00220678	0	-4.34108e-05	0.000307323	7.34e-06	-68.414	0.00332612	0.00122367	0.00309284	-22.5055	2.19737	2.03002	0.84109	0.421065	0.173921	0.45557	22.4431	2767.42	6699.96	7249.01	-67.5569	0.0000000E+000	0.0000000E+000	0.0000000E+000	67.5569	0.0000000E+000	0.0000000E+000	0.0000000E+000	-67.5569	0.0000000E+000	0.0000000E+000	0.0000000E+000	-22.4431	0.0000000E+000	0.0000000E+000	0.0000000E+000	22.4431	2.42101	67.5569	-8.08153e-07	-3.79346e-06	-4.25741e-09	-3.7892e-06	0.273525	19766.7	22.1843	19744.5
6810.42	2.2162	0.934431	2.40515	-22.862	4.80254	0.273832	-0.0107991	25.0092	3.77494	1	9	0.00457093	0.00190048	0	-4.52228e-05	0.000326414	1.75291e-05	27.1688	0.00922353	0.00820586	-0.00421159	-22.694	2.41108	2.22441	0.930219	0.383113	0.161534	0.415775	22.862	3774.94	8953.1	9716.39	-67.138	0.0000000E+000	0.0000000E+000	0.0000000E+000	67.138	0.0000000E+000	0.0000000E+000	0.0000000E+000	-67.138	0.0000000E+000	0.0000000E+000	0.0000000E+000	-22.862	0.0000000E+000	0.0000000E+000	0.0000000E+000	22.862	2.37172	67.138	-1.81199e-06	-2.95713e-06	-3.52496e-09	-2.9536e-06	0.273506	25357	30.2262	25326.8
4646	2.42487	1.05748	2.64543	-23.5619	5.19764	0.273811	-0.0353814	32.3943	5.17633	1	9	0.00495369	0.00187255	0	-4.69614e-05	0.000307323	6.2189e-06	28.9805	0.00332109	0.00290524	-0.0016091	-23.5048	2.64745	2.42778	1.05587	0.346496	0.151106	0.378011	23.5619	5176.33	11869.7	12949.3	-66.4381	0.0000000E+000	0.0000000E+000	0.0000000E+000	66.4381	0.0000000E+000	0.0000000E+000	0.0000000E+000	-66.4381	0.0000000E+000	0.0000000E+000	0.0000000E+000	-23.5619	0.0000000E+000	0.0000000E+000	0.0000000E+000	23.5619	2.29307	66.4381	-1.73858e-06	-9.68782e-06	-1.08735e-08	-9.67695e-06	0.273504	7738.86	8.68602	7730.18
3163.08	2.66102	1.23395	2.93319	-24.8777	5.57064	0.273615	-0.0786239	40.7769	7.21646	1	9	0.00488865	0.00166666	0	-5.57643e-05	9.7324e-05	9.55673e-06	44.114	0.00573405	0.0041168	-0.0039914	-24.7732	2.93525	2.66513	1.22995	0.30929	0.143422	0.340925	24.8777	7216.46	15562.4	17154.2	-65.1223	0.0000000E+000	0.0000000E+000	0.0000000E+000	65.1223	0.0000000E+000	0.0000000E+000	0.0000000E+000	-65.1223	0.0000000E+000	0.0000000E+000	0.0000000E+000	-24.8777	0.0000000E+000	0.0000000E+000	0.0000000E+000	24.8777	2.15651	65.1223	-8.80296e-06	-2.15127e-05	-7.65199e-09	-2.1505e-05	0.273518	3480.05	1.23784	3478.81
2155.69	2.88648	1.41502	3.21466	-26.1152	6.02184	0.273841	0.0665607	52.1761	10.1094	1	9	0.0048363	0.00150445	0	-4.85146e-05	1.86979e-06	8.67333e-06	-36.7813	0.00576511	0.00461743	0.00345193	-26.1342	3.22033	2.8911	1.41847	0.279317	0.136928	0.311075	26.1152	10109.4	20622.1	22966.7	-63.8848	0.0000000E+000	0.0000000E+000	0.0000000E+000	63.8848	0.0000000E+000	0.0000000E+000	0.0000000E+000	-63.8848	0.0000000E+000	0.0000000E+000	0.0000000E+000	-26.1152	0.0000000E+000	0.0000000E+000	0.0000000E+000	26.1152	2.03989	63.8848	7.24975e-06	1.8227e-05	1.24455e-10	1.82269e-05	0.273839	4114.15	0.0280915	4114.12
1468.59	3.15089	1.65648	3.55978	-27.7317	6.71906	0.273787	-0.0269927	65.4234	14.1664	1	10	0.00497164	0.00139661	0	-4.85005e-05	7.82332e-05	9.73449e-06	-45.6805	0.00697007	0.0048697	0.00498677	-27.7662	3.56642	3.15576	1.66147	0.248649	0.130719	0.280916	27.7317	14166.4	26946.7	30443.6	-62.2683	0.0000000E+000	0.0000000E+000	0.0000000E+000	62.2683	0.0000000E+000	0.0000000E+000	0.0000000E+000	-62.2683	0.0000000E+000	0.0000000E+000	0.0000000E+000	-27.7317	0.0000000E+000	0.0000000E+000	0.0000000E+000	27.7317	1.90216	62.2683	1.4042e-08	-7.39023e-06	-2.11172e-09	-7.38812e-06	0.273708	10143	2.89831	10140.1
1000.32	3.42552	2.0055	3.96941	-30.3472	7.1698	0.273783	-0.0263631	79.3338	20.2512	1	10	0.00491103	0.00123722	0	-5.09936e-05	-9.35844e-05	6.18591e-06	50.555	0.00499986	0.0031766	-0.00386106	-30.2759	3.97021	3.4287	2.00164	0.217407	0.127283	0.251926	30.3472	20251.2	34590.4	40082.5	-59.6528	0.0000000E+000	0.0000000E+000	0.0000000E+000	59.6528	0.0000000E+000	0.0000000E+000	0.0000000E+000	-59.6528	0.0000000E+000	0.0000000E+000	0.0000000E+000	-30.3472	0.0000000E+000	0.0000000E+000	0.0000000E+000	30.3472	1.70806	59.6528	-2.49301e-06	-7.21777e-06	2.46718e-09	-7.22023e-06	0.273876	10385.1	3.54982	10388.6
681.09	3.74486	2.46738	4.48464	-33.3797	7.62056	0.273781	-0.0272981	94.7066	28.668	1	10	0.00486396	0.00108458	0	-5.42766e-05	2.09606e-05	1.06759e-05	53.462	0.00984327	0.00586024	-0.0079087	-33.2541	4.48519	3.75072	2.45947	0.186201	0.122682	0.222983	33.3797	28668	43510.8	52106.1	-56.6203	0.0000000E+000	0.0000000E+000	0.0000000E+000	56.6203	0.0000000E+000	0.0000000E+000	0.0000000E+000	-56.6203	0.0000000E+000	0.0000000E+000	0.0000000E+000	-33.3797	0.0000000E+000	0.0000000E+000	0.0000000E+000	33.3797	1.51775	56.6203	-3.28306e-06	-7.4737e-06	-5.72186e-10	-7.47313e-06	0.27376	10029.3	0.767841	10028.5
463.961	4.13853	3.15137	5.20178	-37.2882	8.07229	0.273784	-0.0265494	108.853	39.9516	1	10	0.00484023	0.000930494	0	-5.73468e-05	2.09606e-05	1.08707e-05	-6.609	0.0116827	0.0116051	0.0013446	-37.2227	5.21183	4.15013	3.15271	0.152947	0.116465	0.192242	37.2882	39951.6	52466.3	65945.8	-52.7118	0.0000000E+000	0.0000000E+000	0.0000000E+000	52.7118	0.0000000E+000	0.0000000E+000	0.0000000E+000	-52.7118	0.0000000E+000	0.0000000E+000	0.0000000E+000	-37.2882	0.0000000E+000	0.0000000E+000	0.0000000E+000	37.2882	1.31325	52.7118	-3.07022e-06	-7.26881e-06	-5.56492e-10	-7.26825e-06	0.273764	10312.3	0.789496	10311.5
316.316	4.67314	4.08006	6.20364	-41.1238	8.52008	0.273779	-0.0270225	123.32	53.3424	1	10	0.00482562	0.000777868	0	-6.03934e-05	0.000288232	6.26308e-06	47.8304	0.00805159	0.00540525	-0.00596753	-41.0494	6.20379	4.67855	4.07409	0.121427	0.106016	0.161196	41.1238	53342.4	61096.3	81105.9	-48.8762	0.0000000E+000	0.0000000E+000	0.0000000E+000	48.8762	0.0000000E+000	0.0000000E+000	0.0000000E+000	-48.8762	0.0000000E+000	0.0000000E+000	0.0000000E+000	-41.1238	0.0000000E+000	0.0000000E+000	0.0000000E+000	41.1238	1.14536	48.8762	-3.04657e-06	-7.3982e-06	-7.78876e-09	-7.39041e-06	0.273491	10131.5	10.6664	10120.9
215.345	5.46768	5.31618	7.62609	-44.1951	8.97057	0.273784	-0.0267766	139.023	67.5588	1	10	0.00480796	0.000630462	0	-6.27641e-05	-5.54027e-05	4.15655e-06	-59.1523	0.00659287	0.00338054	0.0056602	-44.2079	7.63246	5.47106	5.32184	0.0940154	0.0914104	0.131129	44.1951	67558.8	69484	96913.5	-45.8049	0.0000000E+000	0.0000000E+000	0.0000000E+000	45.8049	0.0000000E+000	0.0000000E+000	0.0000000E+000	-45.8049	0.0000000E+000	0.0000000E+000	0.0000000E+000	-44.1951	0.0000000E+000	0.0000000E+000	0.0000000E+000	44.1951	1.0285	45.8049	-2.37072e-06	-7.331e-06	1.4835e-09	-7.33249e-06	0.273839	10224.7	2.06907	10226.8
146.737	6.65338	6.89421	9.5811	-46.0184	9.41652	0.273788	-0.0267841	157.324	81.4578	1	10	0.00480185	0.000501179	0	-6.56909e-05	0.000192778	5.49482e-06	47.9776	0.0109638	0.00733938	-0.0081448	-45.953	9.58034	6.66072	6.88606	0.0724788	0.0751023	0.104372	46.0184	81457.8	78612.3	113205	-43.9816	0.0000000E+000	0.0000000E+000	0.0000000E+000	43.9816	0.0000000E+000	0.0000000E+000	0.0000000E+000	-43.9816	0.0000000E+000	0.0000000E+000	0.0000000E+000	-46.0184	0.0000000E+000	0.0000000E+000	0.0000000E+000	46.0184	0.965068	43.9816	-2.92678e-06	-7.33315e-06	-5.16339e-09	-7.32799e-06	0.273595	10222	7.19749	10214.8
100.032	8.46972	8.69902	12.1412	-45.7652	9.8678	0.273778	-0.0257149	182.899	93.8917	1	10	0.00479698	0.000395099	0	-6.89689e-05	0.000307323	9.58612e-06	-28.2473	0.0242626	0.0213732	0.011483	-45.7308	12.1644	8.49109	8.7105	0.0574572	0.0590128	0.0823641	45.7652	93891.7	91416.8	131045	-44.2348	0.0000000E+000	0.0000000E+000	0.0000000E+000	44.2348	0.0000000E+000	0.0000000E+000	0.0000000E+000	-44.2348	0.0000000E+000	0.0000000E+000	0.0000000E+000	-45.7652	0.0000000E+000	0.0000000E+000	0.0000000E+000	45.7652	0.97364	44.2348	-3.27802e-06	-7.0402e-06	-7.9028e-09	-7.0323e-06	0.273471	10646.7	11.9512	10634.7
68.104	11.1139	10.5334	15.3125	-43.4638	10.3305	0.273787	-0.0226342	221.86	104.985	1	10	0.00479077	0.000312867	0	-7.19015e-05	-3.63119e-05	1.23595e-05	-83.0503	0.0395039	0.00477988	0.0392136	-43.5578	15.3429	11.1187	10.5726	0.0473999	0.0449239	0.0653063	43.4638	104985	110771	152617	-46.5362	0.0000000E+000	0.0000000E+000	0.0000000E+000	46.5362	0.0000000E+000	0.0000000E+000	0.0000000E+000	-46.5362	0.0000000E+000	0.0000000E+000	0.0000000E+000	-43.4638	0.0000000E+000	0.0000000E+000	0.0000000E+000	43.4638	1.05511	46.5362	-2.93256e-06	-6.19694e-06	8.21891e-10	-6.19776e-06	0.273823	12096.1	1.60429	12097.8
46.4415	14.6694	11.9691	18.9328	-39.2117	11.0066	0.273823	-0.0111151	286.321	114.431	1	11	0.00479813	0.00025343	0	-7.55113e-05	0.000364596	7.12056e-06	-41.084	0.0280968	0.0211779	0.0184642	-39.2145	18.9609	14.6906	11.9875	0.0409245	0.0333911	0.0528184	39.2117	114431	140248	181008	-50.7883	0.0000000E+000	0.0000000E+000	0.0000000E+000	50.7883	0.0000000E+000	0.0000000E+000	0.0000000E+000	-50.7883	0.0000000E+000	0.0000000E+000	0.0000000E+000	-39.2117	0.0000000E+000	0.0000000E+000	0.0000000E+000	39.2117	1.22561	50.7883	-3.60985e-06	-3.04356e-06	-4.0525e-09	-3.0395e-06	0.273458	24635.3	32.802	24602.5
31.6296	18.7663	12.5006	22.5486	-33.6685	11.4365	0.27382	-0.0111609	402.527	123.714	1	11	0.00478804	0.000212343	0	-7.63668e-05	-9.35844e-05	7.38408e-06	-52.3818	0.0347743	0.0212261	0.0275446	-33.6968	22.5816	18.7875	12.5282	0.0369096	0.0245863	0.0443486	33.6685	123714	185723	223155	-56.3315	0.0000000E+000	0.0000000E+000	0.0000000E+000	56.3315	0.0000000E+000	0.0000000E+000	0.0000000E+000	-56.3315	0.0000000E+000	0.0000000E+000	0.0000000E+000	-33.6685	0.0000000E+000	0.0000000E+000	0.0000000E+000	33.6685	1.50123	56.3315	-8.5545e-07	-3.05609e-06	1.04449e-09	-3.05713e-06	0.273914	24533.9	8.38501	24542.2
21.5517	22.8868	11.9811	25.8332	-27.6318	11.8574	0.273826	-0.0110662	616.368	132.581	1	11	0.00478817	0.00018535	0	-7.75118e-05	0.000250051	5.68406e-06	-48.8585	0.0306667	0.0201763	0.0230947	-27.6564	25.8618	22.907	12.0042	0.0342949	0.0179532	0.0387099	27.6318	132581	253260	285864	-62.3682	0.0000000E+000	0.0000000E+000	0.0000000E+000	62.3682	0.0000000E+000	0.0000000E+000	0.0000000E+000	-62.3682	0.0000000E+000	0.0000000E+000	0.0000000E+000	-27.6318	0.0000000E+000	0.0000000E+000	0.0000000E+000	27.6318	1.91024	62.3682	-1.14501e-06	-3.03022e-06	-2.76711e-09	-3.02745e-06	0.273576	24744.3	22.5959	24721.8
14.6852	26.3637	10.6197	28.4223	-21.9404	12.3182	0.273825	-0.0103108	1020.53	142.475	1	11	0.00478589	0.000168385	0	-7.82148e-05	0.000307323	8.34363e-06	140.581	0.0495508	-0.0382791	-0.0314642	-21.9103	28.375	26.3254	10.5883	0.0326354	0.0131461	0.0351837	21.9404	142475	353697	381314	-68.0596	0.0000000E+000	0.0000000E+000	0.0000000E+000	68.0596	0.0000000E+000	0.0000000E+000	0.0000000E+000	-68.0596	0.0000000E+000	0.0000000E+000	0.0000000E+000	-21.9404	0.0000000E+000	0.0000000E+000	0.0000000E+000	21.9404	2.48252	68.0596	-7.0304e-07	-2.82336e-06	-3.16875e-09	-2.82019e-06	0.273517	26557	29.8059	26527.2
10.0032	29.044	8.80671	30.3499	-16.8683	12.7688	0.273822	-0.010278	1806.62	152.118	1	11	0.00478584	0.000157689	0	-8.07622e-05	9.7324e-05	1.32971e-05	-80.7877	0.0843249	0.0134998	0.0832373	-17.0111	30.387	29.0575	8.88995	0.0315314	0.00956093	0.0329491	16.8683	152118	501677	524233	-73.1317	0.0000000E+000	0.0000000E+000	0.0000000E+000	73.1317	0.0000000E+000	0.0000000E+000	0.0000000E+000	-73.1317	0.0000000E+000	0.0000000E+000	0.0000000E+000	-16.8683	0.0000000E+000	0.0000000E+000	0.0000000E+000	16.8683	3.29795	73.1317	-2.54735e-06	-2.81434e-06	-1.0003e-09	-2.81334e-06	0.273724	26641.5	9.46915	26632.1
6.81719	30.8971	7.23385	31.7326	-13.1772	13.1085	0.273835	-0.00967212	3227.34	167.715	1	11	0.00478756	0.000150872	0	-8.03126e-05	0.000154597	1.31847e-05	-83.3609	0.0873898	0.0101036	0.0868038	-13.3255	31.7624	30.9072	7.32066	0.0306836	0.00718386	0.0315133	13.1772	167715	716342	735714	-76.8228	0.0000000E+000	0.0000000E+000	0.0000000E+000	76.8228	0.0000000E+000	0.0000000E+000	0.0000000E+000	-76.8228	0.0000000E+000	0.0000000E+000	0.0000000E+000	-13.1772	0.0000000E+000	0.0000000E+000	0.0000000E+000	13.1772	4.27118	76.8228	4.49567e-07	-2.64857e-06	-1.49528e-09	-2.64707e-06	0.273681	28311.8	15.9837	28295.8
4.63925	32.2142	5.75822	32.7248	-10.1345	13.5925	0.273827	-0.00967585	5957.77	184.462	1	11	0.0047871	0.000146284	0	-8.15371e-05	5.91423e-05	5.63537e-06	2.6226	0.0385236	0.0384832	-0.00176273	-10.1196	32.7623	32.2526	5.75646	0.0300811	0.00537694	0.0305579	10.1345	184462	1.03197e+06	1.04832e+06	-79.8655	0.0000000E+000	0.0000000E+000	0.0000000E+000	79.8655	0.0000000E+000	0.0000000E+000	0.0000000E+000	-79.8655	0.0000000E+000	0.0000000E+000	0.0000000E+000	-10.1345	0.0000000E+000	0.0000000E+000	0.0000000E+000	10.1345	5.59447	79.8655	-1.2245e-06	-2.64951e-06	-5.72252e-10	-2.64894e-06	0.273768	28300.1	6.11236	28294
3.1604	33.1294	4.6362	33.4523	-7.96635	14.2855	0.273827	-0.00891206	10862.2	208.636	1	11	0.00479016	0.000143194	0	-8.52091e-05	4.00515e-05	6.12275e-06	-36.1042	0.0427585	0.0345466	0.0251957	-8.00084	33.49	33.164	4.66139	0.0296049	0.00414296	0.0298933	7.96635	208636	1.49088e+06	1.5054e+06	-82.0337	0.0000000E+000	0.0000000E+000	0.0000000E+000	82.0337	0.0000000E+000	0.0000000E+000	0.0000000E+000	-82.0337	0.0000000E+000	0.0000000E+000	0.0000000E+000	-7.96635	0.0000000E+000	0.0000000E+000	0.0000000E+000	7.96635	7.14582	82.0337	-3.67194e-06	-2.44036e-06	-3.56941e-10	-2.44001e-06	0.273787	30725.4	4.49408	30720.9
2.15577	33.8326	3.83482	34.0492	-6.46671	15.2891	0.273829	-0.00854667	19251.9	244.202	1	11	0.00478781	0.000140614	0	-8.90392e-05	-9.35844e-05	4.45807e-06	30.5898	0.0317042	0.0272921	-0.0161339	-6.43458	34.0745	33.8599	3.81869	0.0291824	0.00330774	0.0293693	6.46671	244202	2.15446e+06	2.16826e+06	-83.5333	0.0000000E+000	0.0000000E+000	0.0000000E+000	83.5333	0.0000000E+000	0.0000000E+000	0.0000000E+000	-83.5333	0.0000000E+000	0.0000000E+000	0.0000000E+000	-6.46671	0.0000000E+000	0.0000000E+000	0.0000000E+000	6.46671	8.82246	83.5333	-3.83009e-06	-2.34033e-06	7.99835e-10	-2.34113e-06	0.273923	32039.3	10.9498	32050.2
1.46631	34.3926	3.27624	34.5483	-5.44158	17.4765	0.273831	-0.00825036	33129.8	297.932	1	12	0.00478907	0.00013862	0	-9.24199e-05	-3.63119e-05	3.03103e-06	107.304	0.0218658	-0.00650373	-0.0208762	-5.40813	34.5398	34.3861	3.25536	0.0288146	0.00274488	0.028945	5.44158	297932	3.12757e+06	3.14172e+06	-84.5584	0.0000000E+000	0.0000000E+000	0.0000000E+000	84.5584	0.0000000E+000	0.0000000E+000	0.0000000E+000	-84.5584	0.0000000E+000	0.0000000E+000	0.0000000E+000	-5.44158	0.0000000E+000	0.0000000E+000	0.0000000E+000	5.44158	10.4976	84.5584	-3.38073e-06	-2.25921e-06	2.99586e-10	-2.2595e-06	0.273867	33190.2	4.40125	33194.6
1.00006	34.8831	2.92223	35.0053	-4.78861	19.6056	0.273833	-0.00790088	54460	379.524	1	12	0.00479263	0.000136911	0	-9.26564e-05	4.00515e-05	1.14401e-06	37.6647	0.00835581	0.00661446	-0.00510573	-4.77938	35.0114	34.8897	2.91712	0.0284674	0.00238477	0.0285671	4.78861	379524	4.53044e+06	4.54631e+06	-85.2114	0.0000000E+000	0.0000000E+000	0.0000000E+000	85.2114	0.0000000E+000	0.0000000E+000	0.0000000E+000	-85.2114	0.0000000E+000	0.0000000E+000	0.0000000E+000	-4.78861	0.0000000E+000	0.0000000E+000	0.0000000E+000	4.78861	11.9371	85.2114	-2.36527e-07	-2.16352e-06	-3.16442e-10	-2.16321e-06	0.273793	34658.6	5.06924	34653.5
0.681362	35.3326	2.72931	35.4379	-4.41712	22.7159	0.27383	-0.00722533	85583.2	507.646	1	12	0.00478915	0.000135142	0	-9.46962e-05	0.000192778	2.82046e-06	63.6516	0.0208703	0.00926282	-0.0187021	-4.38582	35.4456	35.3419	2.71061	0.0281346	0.00217329	0.0282184	4.41712	507645	6.57178e+06	6.59135e+06	-85.5829	0.0000000E+000	0.0000000E+000	0.0000000E+000	85.5829	0.0000000E+000	0.0000000E+000	0.0000000E+000	-85.5829	0.0000000E+000	0.0000000E+000	0.0000000E+000	-4.41712	0.0000000E+000	0.0000000E+000	0.0000000E+000	4.41712	12.9456	85.5829	-2.03982e-06	-1.97851e-06	-1.39289e-09	-1.97712e-06	0.273637	37898.6	26.6809	37871.9
0.464091	35.7928	2.67856	35.8929	-4.27977	27.2716	0.273828	-0.00622949	128031	713.023	1	12	0.0047906	0.00013347	0	-0.000102662	-0.000265402	2.2415e-06	-69.528	0.0167941	0.00587371	0.0157334	-4.30411	35.8999	35.7986	2.6943	0.027783	0.00207915	0.0278607	4.27977	713022	9.52789e+06	9.55453e+06	-85.7202	0.0000000E+000	0.0000000E+000	0.0000000E+000	85.7202	0.0000000E+000	0.0000000E+000	0.0000000E+000	-85.7202	0.0000000E+000	0.0000000E+000	0.0000000E+000	-4.27977	0.0000000E+000	0.0000000E+000	0.0000000E+000	4.27977	13.3627	85.7202	-7.96585e-06	-1.70581e-06	1.65332e-09	-1.70746e-06	0.274094	43956.7	42.6041	43999.3
0.316193	36.2217	2.8103	36.3306	-4.43647	33.946	0.273831	-0.0051224	179108	1071.71	1	12	0.00478872	0.00013181	0	-0.000120492	0.000211869	2.95527e-06	26.8748	0.0224208	0.0199992	-0.0101351	-4.4181	36.3498	36.2417	2.80017	0.0274425	0.00212916	0.027525	4.43647	1.0717e+06	1.38131e+07	1.38546e+07	-85.5635	0.0000000E+000	0.0000000E+000	0.0000000E+000	85.5635	0.0000000E+000	0.0000000E+000	0.0000000E+000	-85.5635	0.0000000E+000	0.0000000E+000	0.0000000E+000	-4.43647	0.0000000E+000	0.0000000E+000	0.0000000E+000	4.43647	12.8889	85.5635	-1.78303e-05	-1.40267e-06	-1.08528e-09	-1.40159e-06	0.273619	53457.6	41.3613	53416.2
0.215268	36.6952	3.0585	36.8225	-4.76452	43.7396	0.273826	-0.00448289	241731	1667.72	1	12	0.00478791	0.000130027	0	-0.000150124	-1.72211e-05	6.04235e-06	90.1986	0.04647	-0.000161078	-0.0464698	-4.69248	36.8185	36.6951	3.01203	0.0270635	0.00225571	0.0271573	4.76452	1.66772e+06	2.0009e+07	2.00783e+07	-85.2355	0.0000000E+000	0.0000000E+000	0.0000000E+000	85.2355	0.0000000E+000	0.0000000E+000	0.0000000E+000	-85.2355	0.0000000E+000	0.0000000E+000	0.0000000E+000	-4.76452	0.0000000E+000	0.0000000E+000	0.0000000E+000	4.76452	11.9978	85.2355	-2.96317e-05	-1.22753e-06	7.72001e-11	-1.22761e-06	0.273843	61082.5	3.84151	61086.3
0.146929	37.2788	3.50946	37.4436	-5.37803	58.0779	0.273829	-0.00393655	308654	2711.43	1	12	0.00478755	0.00012786	0	-0.000187592	0.000250051	1.88533e-06	65.5802	0.0147452	0.00609597	-0.0134262	-5.35671	37.4484	37.2849	3.49604	0.0265893	0.00250314	0.0267068	5.37803	2.71143e+06	2.88018e+07	2.89291e+07	-84.622	0.0000000E+000	0.0000000E+000	0.0000000E+000	84.622	0.0000000E+000	0.0000000E+000	0.0000000E+000	-84.622	0.0000000E+000	0.0000000E+000	0.0000000E+000	-5.37803	0.0000000E+000	0.0000000E+000	0.0000000E+000	5.37803	10.6224	84.622	-3.74683e-05	-1.07794e-06	-9.84337e-10	-1.07696e-06	0.273579	69560.6	63.5203	69497.1
0.0999041	37.9893	4.26945	38.2285	-6.41232	79.1551	0.273824	-0.00370873	373134	4654.1	1	12	0.00478746	0.000125233	0	-0.0002225	-0.000265402	2.15034e-06	-48.2632	0.0171707	0.0114307	0.012813	-6.42949	38.2412	38.0007	4.28227	0.0259949	0.00292145	0.0261585	6.41232	4.6541e+06	4.14118e+07	4.16726e+07	-83.5877	0.0000000E+000	0.0000000E+000	0.0000000E+000	83.5877	0.0000000E+000	0.0000000E+000	0.0000000E+000	-83.5877	0.0000000E+000	0.0000000E+000	0.0000000E+000	-6.41232	0.0000000E+000	0.0000000E+000	0.0000000E+000	6.41232	8.89793	83.5877	-3.49076e-05	-1.01554e-06	9.84304e-10	-1.01652e-06	0.274089	73832.3	71.5615	73903.8
0.0680626	38.7522	5.35254	39.1201	-7.86405	110.083	0.273821	-0.00332815	436869	8178.44	1	12	0.00479351	0.000122533	0	-0.000241493	1.86979e-06	4.28868e-06	-19.9943	0.0350002	0.0328906	0.0119675	-7.87482	39.1544	38.7851	5.36451	0.0253219	0.00349751	0.0255623	7.86405	8.17844e+06	5.92117e+07	5.97738e+07	-82.1359	0.0000000E+000	0.0000000E+000	0.0000000E+000	82.1359	0.0000000E+000	0.0000000E+000	0.0000000E+000	-82.1359	0.0000000E+000	0.0000000E+000	0.0000000E+000	-7.86405	0.0000000E+000	0.0000000E+000	0.0000000E+000	7.86405	7.23997	82.1359	-1.89933e-05	-9.11316e-07	-6.22294e-12	-9.1131e-07	0.273819	82274.2	0.561811	82273.6
0.0464052	39.4642	6.66154	40.0225	-9.58118	155.434	0.273817	-0.00247116	514848	14263.3	1	12	0.00479076	0.000119702	0	-0.00021721	0.000173687	2.5204e-06	29.4977	0.0210557	0.0183264	-0.0103676	-9.56219	40.0388	39.4825	6.65117	0.0246374	0.00415879	0.024986	9.58118	1.42633e+07	8.44985e+07	8.56939e+07	-80.4188	0.0000000E+000	0.0000000E+000	0.0000000E+000	80.4188	0.0000000E+000	0.0000000E+000	0.0000000E+000	-80.4188	0.0000000E+000	0.0000000E+000	0.0000000E+000	-9.58118	0.0000000E+000	0.0000000E+000	0.0000000E+000	9.58118	5.92419	80.4188	2.42836e-05	-6.76645e-07	-4.2921e-10	-6.76216e-07	0.273643	110805	70.2857	110735
0.0315922	40.5007	8.29109	41.3407	-11.5694	222.04	0.273816	-0.00122374	607615	24439.7	1	12	0.00479017	0.000115871	0	-0.000140194	0.000250051	1.97635e-06	-40.9132	0.0170565	0.0128896	0.0111705	-11.581	41.3555	40.5136	8.30226	0.0236978	0.00485128	0.0241893	11.5694	2.44397e+07	1.19385e+08	1.2186e+08	-78.4306	0.0000000E+000	0.0000000E+000	0.0000000E+000	78.4306	0.0000000E+000	0.0000000E+000	0.0000000E+000	-78.4306	0.0000000E+000	0.0000000E+000	0.0000000E+000	-11.5694	0.0000000E+000	0.0000000E+000	0.0000000E+000	11.5694	4.88485	78.4306	7.70161e-05	-3.35078e-07	-3.05996e-10	-3.34772e-07	0.273566	223754	204.334	223550
0.0215268	42.0284	10.5915	43.3424	-14.1445	319.778	0.273816	-3.75884e-05	698042	41684.4	1	12	0.00479172	0.000110555	0	-3.63889e-05	0.00023096	1.9155e-06	0.629146	0.0173262	0.0173252	-0.00019025	-14.1387	43.3592	42.0457	10.5914	0.0223726	0.0056381	0.0230721	14.1445	4.16844e+07	1.65408e+08	1.7058e+08	-75.8555	0.0000000E+000	0.0000000E+000	0.0000000E+000	75.8555	0.0000000E+000	0.0000000E+000	0.0000000E+000	-75.8555	0.0000000E+000	0.0000000E+000	0.0000000E+000	-14.1445	0.0000000E+000	0.0000000E+000	0.0000000E+000	14.1445	3.96811	75.8555	0.000103805	-1.02923e-08	-8.68141e-12	-1.02836e-08	0.273585	7.28458e+06	6144.45	7.27844e+06
0.0146812	43.8144	13.9389	45.9782	-17.6477	463.081	0.273819	0.000664653	777734	71479.9	1	12	0.00479053	0.000104191	0	1.76486e-05	0.000173687	2.45808e-06	10.9577	0.023592	0.0231619	-0.00448445	-17.6336	45.9989	43.8375	13.9344	0.0207259	0.00659363	0.0217495	17.6477	7.14799e+07	2.24684e+08	2.3578e+08	-72.3523	0.0000000E+000	0.0000000E+000	0.0000000E+000	72.3523	0.0000000E+000	0.0000000E+000	0.0000000E+000	-72.3523	0.0000000E+000	0.0000000E+000	0.0000000E+000	-17.6477	0.0000000E+000	0.0000000E+000	0.0000000E+000	17.6477	3.14332	72.3523	5.40375e-05	1.81994e-07	1.15442e-10	1.81879e-07	0.273645	411973	261.32	411711
0.0100092	45.5865	18.2147	49.0908	-21.7798	673.263	0.273812	0.000484988	872972	120183	1	12	0.00478924	9.75588e-05	0	-9.54307e-05	0.00023096	3.73079e-06	17.5604	0.0382414	0.0364594	-0.0115379	-21.7515	49.1204	45.623	18.2031	0.0189163	0.00755825	0.0203704	21.7798	1.20183e+08	3.00787e+08	3.23908e+08	-68.2202	0.0000000E+000	0.0000000E+000	0.0000000E+000	68.2202	0.0000000E+000	0.0000000E+000	0.0000000E+000	-68.2202	0.0000000E+000	0.0000000E+000	0.0000000E+000	-21.7798	0.0000000E+000	0.0000000E+000	0.0000000E+000	21.7798	2.50274	68.2202	-0.000113079	1.32795e-07	1.12013e-10	1.32683e-07	0.273581	564575	476.218	564099