File: txt/19508_R316_UA717_SOC00_C02.mpt
EC-Lab ASCII FILE
Nb header lines : 65

Potentio Electrochemical Impedance Spectroscopy

Run on channel : 2 (SN 66139)
User :
CE vs. WE compliance from -10 V to 10 V
Electrode connection : standard
Potential control : Ewe
Ewe ctrl range : min = -10.00 V, max = 10.00 V
Safety Limits :
	Do not start on E overload
Acquisition started on : 12/04/2025 15:42:28.371
Technique started on : 12/04/2025 15:42:30.098
Loaded Setting File :  C:\Users\Celltest\OneDrive - store-dot.com\Documents\EC-Lab\Data\@Biologic Test Protocols\anode half cell EIS SOC00.mps
Saved on :
	File : 19508_R316_UA717_SOC00_C02.mpr
	Directory : C:\Users\Celltest\OneDrive - store-dot.com\Documents\EC-Lab\Data\Charmaine\
	Host : 169.254.61.224
Device : VMP-3e (SN .003165)
Address : USB
EC-LAB for windows v11.62 (software)
Internet server v27.00 (firmware)
Command interpretor v12.03 (firmware)
Electrode material :
Initial state :
Electrolyte :
Comments :
Electrode surface area : 0.001 cm²
Characteristic mass : 0.001 g
Equivalent Weight : 0.000 g/eq.
Density : 0.000 g/cm3
Volume (V) : 0.001 cm³
Record Ece
Cycle Definition : Charge/Discharge alternance
Mode                Single sine
E (V)               0.0000
vs.                 Eoc
tE (h:m:s)          0:00:0.0000
record              0
dI                  0.000
unit dI             mA
dt (s)              0.000
fi                  100.000
unit fi             kHz
ff                  10.000
unit ff             mHz
Nd                  6
Points              per decade
spacing             Logarithmic
Va (mV)             5.0
pw                  0.10
Na                  2
corr                0
E range min (V)     -10.000
E range max (V)     10.000
I Range             Auto
Bandwidth           5
nc cycles           0
goto Ns'            0
nr cycles           0
inc. cycle          0

freq/Hz	Re(Z)/Ohm	-Im(Z)/Ohm	|Z|/Ohm	Phase(Z)/deg	time/s	<Ewe>/V	<I>/mA	Cs/µF	Cp/µF	cycle number	I Range	|Ewe|/V	|I|/A	Ns	(Q-Qo)/mA.h	<Ece>/V	|Ece|/V	Phase(Zce)/deg	|Zce|/Ohm	Re(Zce)/Ohm	-Im(Zce)/Ohm	Phase(Zwe-ce)/deg	|Zwe-ce|/Ohm	Re(Zwe-ce)/Ohm	-Im(Zwe-ce)/Ohm	Re(Y)/Ohm-1	Im(Y)/Ohm-1	|Y|/Ohm-1	Phase(Y)/deg	Re(C)/nF	Im(C)/nF	|C|/nF	Phase(C)/deg	Re(M)	Im(M)	|M|	Phase(M)/deg	Re(Permittivity)	Im(Permittivity)	|Permittivity|	Phase(Permittivity)/deg	Re(Resistivity)/Ohm.cm	Im(Resistivity)/Ohm.cm	|Resistivity|/Ohm.cm	Phase(Resistivity)/deg	Re(Conductivity)/mS/cm	Im(Conductivity)/mS/cm	|Conductivity|/mS/cm	Phase(Conductivity)/deg	Tan(Delta)	Loss Angle(Delta)/deg	dq/mA.h	Pwe/W	Pce/W	Pwe-ce/W	<Ewe-Ece>/V	Rwe/Ohm	Rce/Ohm	Rwe-ce/Ohm		Ewe-Ece/V
100004	1.27568	0.519462	1.37739	-22.1563	1.72652	0.272648	-0.0138532	3.06373	0.435757	1	9	0.00469657	0.00340976	0	5.41964e-07	0.000402778	2.05342e-05	95.7524	0.00602218	-0.000603599	-0.00599186	-21.9345	1.37458	1.27508	0.51347	0.672401	0.273804	0.726011	22.1563	435.757	1070.12	1155.44	-67.8437	0.0000000E+000	0.0000000E+000	0.0000000E+000	67.8437	0.0000000E+000	0.0000000E+000	0.0000000E+000	-67.8437	0.0000000E+000	0.0000000E+000	0.0000000E+000	-22.1563	0.0000000E+000	0.0000000E+000	0.0000000E+000	22.1563	2.45577	67.8437	5.41964e-07	-3.77705e-06	-5.57975e-09	-3.77147e-06	0.272246	19681.3	29.0748	19652.2
68132	1.4128	0.586638	1.52976	-22.5497	2.23356	0.27264	-0.00808006	3.98197	0.58559	1	9	0.00505082	0.00330171	0	-3.14226e-06	0.000345505	1.9775e-05	87.9321	0.00598931	0.000216116	-0.00598541	-22.3392	1.52767	1.41302	0.580653	0.603721	0.250683	0.653698	22.5497	585.59	1410.28	1527.02	-67.4503	0.0000000E+000	0.0000000E+000	0.0000000E+000	67.4503	0.0000000E+000	0.0000000E+000	0.0000000E+000	-67.4503	0.0000000E+000	0.0000000E+000	0.0000000E+000	-22.5497	0.0000000E+000	0.0000000E+000	0.0000000E+000	22.5497	2.40831	67.4503	-3.68423e-06	-2.20295e-06	-2.7917e-09	-2.20016e-06	0.272295	33742.4	42.7602	33699.6
46420.4	1.57168	0.651024	1.70118	-22.5003	2.74253	0.272639	-0.00659022	5.26641	0.77127	1	9	0.00505296	0.00297026	0	-2.18767e-05	0.000116415	1.26484e-05	-52.8507	0.00425835	0.00257159	0.00339418	-22.5726	1.70486	1.57426	0.654418	0.543079	0.224955	0.587826	22.5003	771.27	1861.98	2015.4	-67.4997	0.0000000E+000	0.0000000E+000	0.0000000E+000	67.4997	0.0000000E+000	0.0000000E+000	0.0000000E+000	-67.4997	0.0000000E+000	0.0000000E+000	0.0000000E+000	-22.5003	0.0000000E+000	0.0000000E+000	0.0000000E+000	22.5003	2.41417	67.4997	-1.87345e-05	-1.79675e-06	-7.672e-10	-1.79598e-06	0.272522	41370.2	17.6648	41352.6
31621.1	1.73038	0.722302	1.87508	-22.6568	3.24956	0.27264	-0.00595705	6.96825	1.034	1	9	0.00521229	0.00277976	0	-2.86521e-05	0.00023096	1.89552e-05	1.92326	0.00681902	0.00681517	-0.000228853	-22.5704	1.88129	1.7372	0.722073	0.492153	0.205436	0.533309	22.6568	1034	2477.1	2684.24	-67.3432	0.0000000E+000	0.0000000E+000	0.0000000E+000	67.3432	0.0000000E+000	0.0000000E+000	0.0000000E+000	-67.3432	0.0000000E+000	0.0000000E+000	0.0000000E+000	-22.6568	0.0000000E+000	0.0000000E+000	0.0000000E+000	22.6568	2.39565	67.3432	-6.77539e-06	-1.62413e-06	-1.37584e-09	-1.62276e-06	0.272409	45767.7	38.7709	45728.9
21544.7	1.90232	0.801015	2.06408	-22.8346	3.50855	0.272636	-0.0037968	9.2223	1.38888	1	9	0.00494576	0.0023961	0	-3.10352e-05	-3.63119e-05	1.11371e-05	-61.2394	0.00464802	0.0022364	0.00407463	-22.9147	2.06773	1.90456	0.80509	0.446507	0.188012	0.484476	22.8346	1388.88	3298.44	3578.92	-67.1654	0.0000000E+000	0.0000000E+000	0.0000000E+000	67.1654	0.0000000E+000	0.0000000E+000	0.0000000E+000	-67.1654	0.0000000E+000	0.0000000E+000	0.0000000E+000	-22.8346	0.0000000E+000	0.0000000E+000	0.0000000E+000	22.8346	2.37489	67.1654	-2.38314e-06	-1.03514e-06	1.37869e-10	-1.03528e-06	0.272672	71806.9	9.56383	71816.4
14678.6	2.09331	0.879667	2.27063	-22.7935	3.89153	0.27265	-0.00178554	12.3259	1.84996	1	9	0.0048684	0.00214408	0	-2.89113e-05	0.000250051	1.72062e-05	-123.326	0.00802497	-0.00440893	0.00670533	-22.9927	2.26917	2.0889	0.886372	0.406014	0.170619	0.440407	22.7935	1849.96	4402.27	4775.18	-67.2065	0.0000000E+000	0.0000000E+000	0.0000000E+000	67.2065	0.0000000E+000	0.0000000E+000	0.0000000E+000	-67.2065	0.0000000E+000	0.0000000E+000	0.0000000E+000	-22.7935	0.0000000E+000	0.0000000E+000	0.0000000E+000	22.7935	2.37966	67.2065	2.12398e-06	-4.86826e-07	-4.46474e-10	-4.86379e-07	0.2724	152699	140.042	152559
10002.2	2.29776	0.968749	2.49362	-22.8606	4.27455	0.272645	-0.000705409	16.4253	2.47898	1	9	0.00490843	0.00196839	0	-2.72739e-05	-5.54027e-05	5.22379e-06	-63.3625	0.00265384	0.00118983	0.00237216	-22.9002	2.49564	2.29895	0.971121	0.369523	0.155793	0.401023	22.8606	2478.98	5879.84	6381.05	-67.1394	0.0000000E+000	0.0000000E+000	0.0000000E+000	67.1394	0.0000000E+000	0.0000000E+000	0.0000000E+000	-67.1394	0.0000000E+000	0.0000000E+000	0.0000000E+000	-22.8606	0.0000000E+000	0.0000000E+000	0.0000000E+000	22.8606	2.37188	67.1394	1.63741e-06	-1.92326e-07	3.90816e-11	-1.92365e-07	0.2727	386506	78.5399	386584
6810.42	2.54764	1.04501	2.75363	-22.3029	4.53356	0.272633	-0.00863879	22.3627	3.22073	1	9	0.00472598	0.00171627	0	-2.82647e-05	-1.72211e-05	0.000105816	-140.877	0.0616548	-0.0478313	0.0389035	-23.4416	2.72468	2.49981	1.08392	0.335989	0.137819	0.363156	22.3029	3220.73	7851.83	8486.72	-67.6971	0.0000000E+000	0.0000000E+000	0.0000000E+000	67.6971	0.0000000E+000	0.0000000E+000	0.0000000E+000	-67.6971	0.0000000E+000	0.0000000E+000	0.0000000E+000	-22.3029	0.0000000E+000	0.0000000E+000	0.0000000E+000	22.3029	2.4379	67.6971	-9.90849e-07	-2.35522e-06	1.48769e-10	-2.35536e-06	0.27265	31559.1	1.99346	31561.1
4646	2.73858	1.20464	2.99182	-23.7436	4.7986	0.27261	-0.0222708	28.437	4.61027	1	9	0.00455065	0.00152103	0	-2.9591e-05	0.000192778	5.99521e-06	-91.4651	0.00394155	-0.000100776	0.00394026	-23.8134	2.99332	2.73848	1.20858	0.305953	0.134582	0.334245	23.7436	4610.27	10480.8	11450	-66.2564	0.0000000E+000	0.0000000E+000	0.0000000E+000	66.2564	0.0000000E+000	0.0000000E+000	0.0000000E+000	-66.2564	0.0000000E+000	0.0000000E+000	0.0000000E+000	-23.7436	0.0000000E+000	0.0000000E+000	0.0000000E+000	23.7436	2.27336	66.2564	-1.32628e-06	-6.07124e-06	-4.29332e-09	-6.06694e-06	0.272417	12240.7	8.6561	12232
3163.08	3.02085	1.40537	3.33176	-24.9489	5.35064	0.272437	-0.0426071	35.8031	6.37019	1	9	0.00498449	0.00149605	0	-3.73531e-05	0.000192778	6.03234e-06	-23.7463	0.00403217	0.0036908	0.00162371	-24.9474	3.33579	3.02455	1.40699	0.272134	0.126603	0.300142	24.9489	6370.19	13692.8	15102.1	-65.0511	0.0000000E+000	0.0000000E+000	0.0000000E+000	65.0511	0.0000000E+000	0.0000000E+000	0.0000000E+000	-65.0511	0.0000000E+000	0.0000000E+000	0.0000000E+000	-24.9489	0.0000000E+000	0.0000000E+000	0.0000000E+000	24.9489	2.14951	65.0511	-7.76212e-06	-1.16078e-05	-8.21371e-09	-1.15995e-05	0.272245	6394.19	4.52456	6389.66
2155.69	3.29172	1.59103	3.65607	-25.7965	6.04678	0.272577	-0.0212149	46.404	8.78788	1	10	0.005141	0.00140615	0	-3.3567e-05	7.82332e-05	8.26753e-06	-32.0568	0.00587953	0.00498303	0.00312062	-25.8065	3.66191	3.29671	1.59415	0.246261	0.119028	0.273518	25.7965	8787.88	18181.5	20193.9	-64.2035	0.0000000E+000	0.0000000E+000	0.0000000E+000	64.2035	0.0000000E+000	0.0000000E+000	0.0000000E+000	-64.2035	0.0000000E+000	0.0000000E+000	0.0000000E+000	-25.7965	0.0000000E+000	0.0000000E+000	0.0000000E+000	25.7965	2.06892	64.2035	3.78614e-06	-5.78269e-06	-1.65971e-09	-5.78103e-06	0.272499	12848.4	3.68766	12844.7
1468.59	3.59492	1.86127	4.04818	-27.3729	6.49805	0.27258	-0.0195162	58.2251	12.3086	1	10	0.00507012	0.00125244	0	-3.60931e-05	2.09606e-05	1.22549e-05	-29.2819	0.0097848	0.00853453	0.00478582	-27.3775	4.05796	3.60345	1.86606	0.219366	0.113577	0.247024	27.3729	12308.6	23773.3	26770.7	-62.6271	0.0000000E+000	0.0000000E+000	0.0000000E+000	62.6271	0.0000000E+000	0.0000000E+000	0.0000000E+000	-62.6271	0.0000000E+000	0.0000000E+000	0.0000000E+000	-27.3729	0.0000000E+000	0.0000000E+000	0.0000000E+000	27.3729	1.93143	62.6271	-2.52613e-06	-5.31972e-06	-4.09071e-10	-5.31931e-06	0.272559	13966.9	1.07401	13965.8
1000.32	3.92007	2.22349	4.50676	-29.5623	6.94885	0.272574	-0.0197211	71.5558	17.4176	1	10	0.00501701	0.00111322	0	-3.92238e-05	0.000307323	4.14085e-06	-94.3587	0.00371971	-0.000282699	0.00370895	-29.605	4.50834	3.91978	2.2272	0.193004	0.109473	0.221889	29.5623	17417.6	30707.6	35303.4	-60.4377	0.0000000E+000	0.0000000E+000	0.0000000E+000	60.4377	0.0000000E+000	0.0000000E+000	0.0000000E+000	-60.4377	0.0000000E+000	0.0000000E+000	0.0000000E+000	-29.5623	0.0000000E+000	0.0000000E+000	0.0000000E+000	29.5623	1.76302	60.4377	-3.13074e-06	-5.37544e-06	-6.06074e-09	-5.36938e-06	0.272266	13821.5	15.5835	13805.9
681.09	4.28497	2.74364	5.08808	-32.6311	7.39851	0.272582	-0.0196838	85.1705	24.7648	1	10	0.00498339	0.000979424	0	-4.1501e-05	-0.000169948	8.04247e-06	-40.118	0.00821143	0.00627944	0.00529115	-32.6432	5.09622	4.29125	2.74893	0.165516	0.105979	0.196538	32.6311	24764.8	38677.3	45926.4	-57.3689	0.0000000E+000	0.0000000E+000	0.0000000E+000	57.3689	0.0000000E+000	0.0000000E+000	0.0000000E+000	-57.3689	0.0000000E+000	0.0000000E+000	0.0000000E+000	-32.6311	0.0000000E+000	0.0000000E+000	0.0000000E+000	32.6311	1.56179	57.3689	-2.2772e-06	-5.36545e-06	3.34522e-09	-5.36879e-06	0.272752	13848	8.63389	13856.7
463.961	4.72737	3.46042	5.85854	-36.2041	7.85035	0.27258	-0.0188866	99.131	34.5851	1	10	0.00495388	0.000845582	0	-4.3375e-05	0.000154597	2.90826e-06	-19.462	0.00343936	0.00324285	0.00114593	-36.1944	5.86184	4.73061	3.46157	0.137734	0.100821	0.170691	36.2041	34585.1	47247.5	58553	-53.7959	0.0000000E+000	0.0000000E+000	0.0000000E+000	53.7959	0.0000000E+000	0.0000000E+000	0.0000000E+000	-53.7959	0.0000000E+000	0.0000000E+000	0.0000000E+000	-36.2041	0.0000000E+000	0.0000000E+000	0.0000000E+000	36.2041	1.36612	53.7959	-1.87396e-06	-5.14812e-06	-2.9198e-09	-5.1452e-06	0.272426	14432.5	8.18551	14424.3
316.316	5.3126	4.45955	6.93623	-40.011	8.29802	0.272574	-0.0197993	112.826	46.6383	1	10	0.00493848	0.000711983	0	-4.62528e-05	1.86979e-06	7.66463e-06	-10.646	0.0107652	0.0105799	0.00198877	-39.9675	6.94562	5.32318	4.46154	0.110423	0.0926923	0.14417	40.011	46638.3	55559.6	72539.7	-49.989	0.0000000E+000	0.0000000E+000	0.0000000E+000	49.989	0.0000000E+000	0.0000000E+000	0.0000000E+000	-49.989	0.0000000E+000	0.0000000E+000	0.0000000E+000	-40.011	0.0000000E+000	0.0000000E+000	0.0000000E+000	40.011	1.19129	49.989	-2.87776e-06	-5.39678e-06	-3.70205e-11	-5.39674e-06	0.272572	13766.9	0.0944372	13766.8
215.345	6.16885	5.78161	8.45469	-43.1441	8.7476	0.272581	-0.0200452	127.831	59.7778	1	10	0.00492476	0.000582489	0	-4.84604e-05	0.000135506	2.33683e-06	75.9163	0.0040118	0.000976226	-0.00389121	-43.1203	8.45274	6.16983	5.77772	0.0862996	0.0808824	0.118278	43.1441	59777.8	63781.6	87415.5	-46.8559	0.0000000E+000	0.0000000E+000	0.0000000E+000	46.8559	0.0000000E+000	0.0000000E+000	0.0000000E+000	-46.8559	0.0000000E+000	0.0000000E+000	0.0000000E+000	-43.1441	0.0000000E+000	0.0000000E+000	0.0000000E+000	43.1441	1.06698	46.8559	-2.2076e-06	-5.46393e-06	-2.71623e-09	-5.46121e-06	0.272445	13598.3	6.76002	13591.6
146.737	7.48848	7.45309	10.5653	-44.8643	9.19447	0.272578	-0.0203991	145.527	72.4187	1	10	0.00491541	0.00046524	0	-5.0185e-05	2.09606e-05	2.92864e-06	25.2018	0.0062949	0.00569571	-0.00268042	-44.8322	10.5675	7.49417	7.45041	0.0670855	0.0667685	0.0946493	44.8643	72418.7	72762.6	102659	-45.1357	0.0000000E+000	0.0000000E+000	0.0000000E+000	45.1357	0.0000000E+000	0.0000000E+000	0.0000000E+000	-45.1357	0.0000000E+000	0.0000000E+000	0.0000000E+000	-44.8643	0.0000000E+000	0.0000000E+000	0.0000000E+000	44.8643	1.00475	45.1357	-1.7246e-06	-5.56033e-06	-4.27577e-10	-5.5599e-06	0.272557	13362.3	1.02753	13361.2
100.032	9.45606	9.37599	13.3164	-44.7564	9.64584	0.272572	-0.0200861	169.693	84.125	1	10	0.00491091	0.000368787	0	-5.29848e-05	7.82332e-05	6.27996e-06	11.0457	0.0170287	0.0167132	-0.00326257	-44.6958	13.326	9.47277	9.37273	0.0533258	0.0528742	0.0750954	44.7564	84125	84843.4	119480	-45.2436	0.0000000E+000	0.0000000E+000	0.0000000E+000	45.2436	0.0000000E+000	0.0000000E+000	0.0000000E+000	-45.2436	0.0000000E+000	0.0000000E+000	0.0000000E+000	-44.7564	0.0000000E+000	0.0000000E+000	0.0000000E+000	44.7564	1.00854	45.2436	-2.79982e-06	-5.47492e-06	-1.5714e-09	-5.47335e-06	0.272494	13570.1	3.89488	13566.3
68.104	12.344	11.357	16.7737	-42.6153	10.1084	0.272592	-0.017255	205.771	94.3309	1	10	0.00489013	0.000291536	0	-5.53074e-05	0.000192778	2.65647e-05	26.522	0.09112	0.0815308	-0.0406889	-42.325	16.8064	12.4256	11.3163	0.0438733	0.0403651	0.0596172	42.6153	94330.9	102529	139322	-47.3847	0.0000000E+000	0.0000000E+000	0.0000000E+000	47.3847	0.0000000E+000	0.0000000E+000	0.0000000E+000	-47.3847	0.0000000E+000	0.0000000E+000	0.0000000E+000	-42.6153	0.0000000E+000	0.0000000E+000	0.0000000E+000	42.6153	1.08691	47.3847	-2.32263e-06	-4.70357e-06	-3.32638e-09	-4.70024e-06	0.272399	15797.9	11.1723	15786.7
46.4415	16.1718	12.7637	20.6019	-38.2825	10.7847	0.272623	-0.00750995	268.496	103.056	1	11	0.00492016	0.00023882	0	-5.75786e-05	-3.63119e-05	9.44449e-06	14.8977	0.0395464	0.0382171	-0.0101672	-38.1945	20.6256	16.21	12.7535	0.0381016	0.0300719	0.0485392	38.2825	103056	130574	166344	-51.7175	0.0000000E+000	0.0000000E+000	0.0000000E+000	51.7175	0.0000000E+000	0.0000000E+000	0.0000000E+000	-51.7175	0.0000000E+000	0.0000000E+000	0.0000000E+000	-38.2825	0.0000000E+000	0.0000000E+000	0.0000000E+000	38.2825	1.26702	51.7175	-2.27115e-06	-2.04738e-06	2.72701e-10	-2.04766e-06	0.272659	36301.5	4.83517	36306.3
31.6296	20.4512	13.2269	24.3558	-32.893	11.2146	0.272611	-0.00767028	380.425	112.197	1	11	0.00491007	0.000201598	0	-5.82675e-05	0.000326414	4.06945e-06	-29.3436	0.0201859	0.017596	0.00989203	-32.89	24.3759	20.4688	13.2368	0.0344759	0.0222975	0.0410581	32.893	112197	173477	206598	-57.107	0.0000000E+000	0.0000000E+000	0.0000000E+000	57.107	0.0000000E+000	0.0000000E+000	0.0000000E+000	-57.107	0.0000000E+000	0.0000000E+000	0.0000000E+000	-32.893	0.0000000E+000	0.0000000E+000	0.0000000E+000	32.893	1.54618	57.107	-6.88995e-07	-2.091e-06	-2.50369e-09	-2.0885e-06	0.272285	35541.2	42.5557	35498.7
21.5517	24.6033	12.69	27.6832	-27.2841	11.6354	0.272605	-0.00774858	581.936	122.284	1	11	0.00490132	0.00017705	0	-5.92034e-05	4.00515e-05	5.93451e-06	-16.6677	0.0335187	0.0321104	0.00961385	-27.2713	27.7161	24.6354	12.6997	0.0321041	0.0165589	0.036123	27.2841	122284	237082	266761	-62.7159	0.0000000E+000	0.0000000E+000	0.0000000E+000	62.7159	0.0000000E+000	0.0000000E+000	0.0000000E+000	-62.7159	0.0000000E+000	0.0000000E+000	0.0000000E+000	-27.2841	0.0000000E+000	0.0000000E+000	0.0000000E+000	27.2841	1.93879	62.7159	-9.35899e-07	-2.1123e-06	-3.10342e-10	-2.11199e-06	0.272565	35181.3	5.16888	35176.1
14.6852	28.2209	11.5217	30.4823	-22.2086	12.0962	0.272624	-0.0068776	940.645	134.389	1	11	0.00490955	0.000161062	0	-6.05258e-05	0.000116415	4.41751e-06	-18.3521	0.0274273	0.0260324	0.00863567	-22.2051	30.5097	28.247	11.5303	0.0303722	0.0124	0.0328059	22.2086	134389	329168	355544	-67.7914	0.0000000E+000	0.0000000E+000	0.0000000E+000	67.7914	0.0000000E+000	0.0000000E+000	0.0000000E+000	-67.7914	0.0000000E+000	0.0000000E+000	0.0000000E+000	-22.2086	0.0000000E+000	0.0000000E+000	0.0000000E+000	22.2086	2.44938	67.7914	-1.32238e-06	-1.875e-06	-8.00654e-10	-1.8742e-06	0.272508	39639.4	16.9267	39622.5
10.0032	31.0016	10.0714	32.5965	-17.9973	12.5468	0.27262	-0.00705172	1579.76	150.81	1	11	0.00489914	0.000150297	0	-6.18426e-05	-9.35844e-05	7.2229e-06	143.74	0.0480576	-0.0387509	-0.0284236	-17.9707	32.5508	30.9628	10.043	0.0291771	0.00947868	0.0306782	17.9973	150810	464220	488102	-72.0027	0.0000000E+000	0.0000000E+000	0.0000000E+000	72.0027	0.0000000E+000	0.0000000E+000	0.0000000E+000	-72.0027	0.0000000E+000	0.0000000E+000	0.0000000E+000	-17.9973	0.0000000E+000	0.0000000E+000	0.0000000E+000	17.9973	3.07819	72.0027	-1.31678e-06	-1.92244e-06	6.59931e-10	-1.9231e-06	0.272713	38660	13.2712	38673.3
6.81719	33.3564	8.54914	34.4345	-14.3753	12.8865	0.27263	-0.00660355	2730.81	168.325	1	11	0.0049102	0.000142595	0	-6.26631e-05	-1.72211e-05	7.32483e-06	55.9876	0.0513679	0.0287338	-0.0425797	-14.2949	34.4518	33.3851	8.50657	0.0281314	0.00720999	0.0290406	14.3753	168325	656758	677986	-75.6247	0.0000000E+000	0.0000000E+000	0.0000000E+000	75.6247	0.0000000E+000	0.0000000E+000	0.0000000E+000	-75.6247	0.0000000E+000	0.0000000E+000	0.0000000E+000	-14.3753	0.0000000E+000	0.0000000E+000	0.0000000E+000	14.3753	3.90172	75.6247	-8.20477e-07	-1.80033e-06	1.1372e-10	-1.80044e-06	0.272647	41285.3	2.60785	41288
4.63925	35.0177	7.30853	35.7722	-11.789	13.3704	0.272614	-0.00662518	4693.99	195.934	1	11	0.00490765	0.000137192	0	-6.19694e-05	-0.000265402	7.05469e-06	7.90286	0.0514221	0.0509337	-0.00707023	-11.7612	35.8206	35.0686	7.30146	0.027365	0.00571135	0.0279547	11.789	195934	938789	959017	-78.211	0.0000000E+000	0.0000000E+000	0.0000000E+000	78.211	0.0000000E+000	0.0000000E+000	0.0000000E+000	-78.211	0.0000000E+000	0.0000000E+000	0.0000000E+000	-11.789	0.0000000E+000	0.0000000E+000	0.0000000E+000	11.789	4.79134	78.211	6.93657e-07	-1.80611e-06	1.75834e-09	-1.80787e-06	0.272879	41148.1	40.0596	41188.2
3.1604	36.4871	6.2253	37.0143	-9.68237	14.0635	0.272627	-0.00594994	8089.44	228.822	1	11	0.00490781	0.000132592	0	-6.30626e-05	-3.63119e-05	3.48745e-06	-10.5836	0.0263021	0.0258546	0.00483089	-9.68301	37.0406	36.5129	6.23013	0.0266317	0.00454381	0.0270166	9.68237	228822	1.34115e+06	1.36053e+06	-80.3176	0.0000000E+000	0.0000000E+000	0.0000000E+000	80.3176	0.0000000E+000	0.0000000E+000	0.0000000E+000	-80.3176	0.0000000E+000	0.0000000E+000	0.0000000E+000	-9.68237	0.0000000E+000	0.0000000E+000	0.0000000E+000	9.68237	5.8611	80.3176	-1.09315e-06	-1.62212e-06	2.16054e-10	-1.62233e-06	0.272664	45820.1	6.1029	45826.2
2.15577	37.5915	5.37057	37.9732	-8.13063	15.0672	0.272626	-0.00529027	13746.7	274.969	1	11	0.00490358	0.000129133	0	-6.6646e-05	4.00515e-05	6.84993e-06	-105.865	0.0530457	-0.014501	0.0510252	-8.20996	37.9661	37.577	5.4216	0.0260696	0.00372448	0.0263344	8.13063	274969	1.92466e+06	1.9442e+06	-81.8694	0.0000000E+000	0.0000000E+000	0.0000000E+000	81.8694	0.0000000E+000	0.0000000E+000	0.0000000E+000	-81.8694	0.0000000E+000	0.0000000E+000	0.0000000E+000	-8.13063	0.0000000E+000	0.0000000E+000	0.0000000E+000	8.13063	6.99954	81.8694	-3.58339e-06	-1.44227e-06	-2.11883e-10	-1.44206e-06	0.272586	51533.5	7.57077	51525.9
1.46631	38.6259	4.69446	38.9101	-6.92955	17.2543	0.272629	-0.00507548	23121.1	336.554	1	12	0.00491002	0.000126189	0	-7.23217e-05	0.000173687	4.53558e-06	27.1446	0.0359429	0.0319841	-0.0163985	-6.89992	38.9399	38.6579	4.67807	0.0255125	0.0031007	0.0257002	6.92955	336554	2.76916e+06	2.78953e+06	-83.0704	0.0000000E+000	0.0000000E+000	0.0000000E+000	83.0704	0.0000000E+000	0.0000000E+000	0.0000000E+000	-83.0704	0.0000000E+000	0.0000000E+000	0.0000000E+000	-6.92955	0.0000000E+000	0.0000000E+000	0.0000000E+000	6.92955	8.22797	83.0704	-5.67568e-06	-1.38372e-06	-8.81546e-10	-1.38284e-06	0.272455	53714.9	34.2209	53680.7
1.00006	39.5073	4.23089	39.7332	-6.11259	19.3828	0.272629	-0.00521008	37615	426.498	1	12	0.00490925	0.000123555	0	-7.44829e-05	0.000192778	3.00252e-06	-60.7825	0.0243011	0.011862	0.0212093	-6.14117	39.7473	39.5192	4.2521	0.0250248	0.00267994	0.0251679	6.11259	426498	3.98256e+06	4.00533e+06	-83.8874	0.0000000E+000	0.0000000E+000	0.0000000E+000	83.8874	0.0000000E+000	0.0000000E+000	0.0000000E+000	-83.8874	0.0000000E+000	0.0000000E+000	0.0000000E+000	-6.11259	0.0000000E+000	0.0000000E+000	0.0000000E+000	6.11259	9.33782	83.8874	-2.16124e-06	-1.42042e-06	-1.00439e-09	-1.41942e-06	0.272437	52327.3	37.001	52290.3
0.681362	40.2424	3.91211	40.4321	-5.55249	22.4949	0.272627	-0.00520324	59707.8	558.986	1	12	0.00490878	0.000121408	0	-7.46385e-05	0.000173687	2.37681e-06	-57.1705	0.0195771	0.0106135	0.0164504	-5.57423	40.4442	40.253	3.92856	0.0246168	0.00239309	0.0247328	5.55249	558986	5.75007e+06	5.77718e+06	-84.4475	0.0000000E+000	0.0000000E+000	0.0000000E+000	84.4475	0.0000000E+000	0.0000000E+000	0.0000000E+000	-84.4475	0.0000000E+000	0.0000000E+000	0.0000000E+000	-5.55249	0.0000000E+000	0.0000000E+000	0.0000000E+000	5.55249	10.2866	84.4475	-1.55632e-07	-1.41854e-06	-9.03736e-10	-1.41764e-06	0.272453	52395.6	33.3806	52362.3
0.464091	40.9236	3.70451	41.091	-5.17246	27.0515	0.272628	-0.0047047	92573.4	752.412	1	12	0.00490953	0.00011948	0	-7.3113e-05	-7.44936e-05	2.57526e-06	7.17857	0.021554	0.021385	-0.00269343	-5.16604	41.112	40.945	3.70182	0.0242372	0.00219401	0.0243363	5.17246	752412	8.31188e+06	8.34586e+06	-84.8275	0.0000000E+000	0.0000000E+000	0.0000000E+000	84.8275	0.0000000E+000	0.0000000E+000	0.0000000E+000	-84.8275	0.0000000E+000	0.0000000E+000	0.0000000E+000	-5.17246	0.0000000E+000	0.0000000E+000	0.0000000E+000	5.17246	11.047	84.8275	1.52547e-06	-1.28263e-06	3.5047e-10	-1.28298e-06	0.272703	57948	15.8339	57963.9
0.316193	41.6312	3.68714	41.7942	-5.06129	33.726	0.272634	-0.0038886	136514	1062.49	1	12	0.00490935	0.000117465	0	-7.36444e-05	-7.44936e-05	1.50882e-06	-19.745	0.0128449	0.0120897	0.00433944	-5.06576	41.8066	41.6433	3.69148	0.0238335	0.00211085	0.0239268	5.06129	1.06249e+06	1.19965e+07	1.20435e+07	-84.9387	0.0000000E+000	0.0000000E+000	0.0000000E+000	84.9387	0.0000000E+000	0.0000000E+000	0.0000000E+000	-84.9387	0.0000000E+000	0.0000000E+000	0.0000000E+000	-5.06129	0.0000000E+000	0.0000000E+000	0.0000000E+000	5.06129	11.2909	84.9387	-5.31306e-07	-1.06016e-06	2.89675e-10	-1.06045e-06	0.272708	70111	19.1569	70130.2
0.215268	42.3085	3.90123	42.4879	-5.2683	43.5195	0.272634	-0.00294569	189513	1597.76	1	12	0.00490824	0.000115521	0	-8.22684e-05	1.86979e-06	2.29355e-06	-6.28543	0.019854	0.0197347	0.00217365	-5.26877	42.5078	42.3282	3.9034	0.0234367	0.00216107	0.0235361	5.2683	1.59776e+06	1.73275e+07	1.7401e+07	-84.7317	0.0000000E+000	0.0000000E+000	0.0000000E+000	84.7317	0.0000000E+000	0.0000000E+000	0.0000000E+000	-84.7317	0.0000000E+000	0.0000000E+000	0.0000000E+000	-5.2683	0.0000000E+000	0.0000000E+000	0.0000000E+000	5.2683	10.8449	84.7317	-8.62409e-06	-8.03095e-07	-5.50782e-12	-8.03089e-07	0.272632	92553.5	0.634755	92552.8
0.146929	42.9796	4.33912	43.198	-5.76492	57.8578	0.272628	-0.00219576	249638	2518.76	1	12	0.00490992	0.000113661	0	-0.00010587	0.000135506	1.50745e-06	139.977	0.0132627	-0.0101564	-0.00852924	-5.75501	43.1871	42.9694	4.33059	0.0230321	0.00232527	0.0231492	5.76492	2.51876e+06	2.49486e+07	2.50755e+07	-84.2351	0.0000000E+000	0.0000000E+000	0.0000000E+000	84.2351	0.0000000E+000	0.0000000E+000	0.0000000E+000	-84.2351	0.0000000E+000	0.0000000E+000	0.0000000E+000	-5.76492	0.0000000E+000	0.0000000E+000	0.0000000E+000	5.76492	9.90514	84.2351	-2.36011e-05	-5.98625e-07	-2.97537e-10	-5.98328e-07	0.272493	124162	61.7126	124100
0.0999041	43.7359	4.97692	44.0182	-6.49205	78.934	0.272629	-0.001833	320093	4091.99	1	12	0.00490863	0.000111514	0	-0.000147764	-1.72211e-05	1.95596e-06	-2.96825	0.0175401	0.0175165	0.00090827	-6.49064	44.0357	43.7534	4.97783	0.0225722	0.00256861	0.0227179	6.49205	4.09199e+06	3.59593e+07	3.61914e+07	-83.5079	0.0000000E+000	0.0000000E+000	0.0000000E+000	83.5079	0.0000000E+000	0.0000000E+000	0.0000000E+000	-83.5079	0.0000000E+000	0.0000000E+000	0.0000000E+000	-6.49205	0.0000000E+000	0.0000000E+000	0.0000000E+000	6.49205	8.78773	83.5079	-4.18943e-05	-4.9973e-07	3.15662e-11	-4.99762e-07	0.272646	148734	9.395	148743
0.0680626	44.6694	5.88949	45.0559	-7.51091	109.862	0.272624	-0.00160951	397040	6783.99	1	12	0.00490652	0.000108898	0	-0.000202898	0.000269142	2.02613e-06	-3.00553	0.0186056	0.0185801	0.000975537	-7.50906	45.0745	44.6879	5.89047	0.0220042	0.00290117	0.0221946	7.51091	6.78399e+06	5.14538e+07	5.18991e+07	-82.4891	0.0000000E+000	0.0000000E+000	0.0000000E+000	82.4891	0.0000000E+000	0.0000000E+000	0.0000000E+000	-82.4891	0.0000000E+000	0.0000000E+000	0.0000000E+000	-7.51091	0.0000000E+000	0.0000000E+000	0.0000000E+000	7.51091	7.58459	82.4891	-5.51339e-05	-4.38791e-07	-4.33187e-10	-4.38358e-07	0.272354	169383	167.219	169215
0.0464052	45.914	7.2478	46.4826	-8.97046	155.213	0.272625	-0.00178415	473203	11504.8	1	12	0.00490917	0.000105613	0	-0.000257332	0.000154597	2.12194e-06	-1.01328	0.0200917	0.0200885	0.000355303	-8.96703	46.5025	45.9341	7.24816	0.0212503	0.00335449	0.0215134	8.97046	1.15048e+07	7.28817e+07	7.37842e+07	-81.0295	0.0000000E+000	0.0000000E+000	0.0000000E+000	81.0295	0.0000000E+000	0.0000000E+000	0.0000000E+000	-81.0295	0.0000000E+000	0.0000000E+000	0.0000000E+000	-8.97046	0.0000000E+000	0.0000000E+000	0.0000000E+000	8.97046	6.33489	81.0295	-5.44347e-05	-4.86403e-07	-2.75823e-10	-4.86127e-07	0.27247	152804	86.65	152717
0.0315922	47.2215	9.21709	48.1126	-11.0446	221.819	0.272621	-0.00180039	546570	20059.3	1	12	0.00490867	0.000102025	0	-0.000274983	0.000440959	2.29586e-06	50.9116	0.022503	0.0141886	-0.0174663	-11.021	48.1232	47.2357	9.19963	0.0203996	0.00398177	0.0207846	11.0446	2.00593e+07	1.02769e+08	1.04708e+08	-78.9554	0.0000000E+000	0.0000000E+000	0.0000000E+000	78.9554	0.0000000E+000	0.0000000E+000	0.0000000E+000	-78.9554	0.0000000E+000	0.0000000E+000	0.0000000E+000	-11.0446	0.0000000E+000	0.0000000E+000	0.0000000E+000	11.0446	5.12325	78.9554	-1.76508e-05	-4.90825e-07	-7.939e-10	-4.90032e-07	0.27218	151423	244.924	151178
0.0215268	48.5538	11.6349	49.9284	-13.4757	319.557	0.272614	-0.00135475	635444	34507.2	1	12	0.00490793	9.82995e-05	0	-0.000217111	0.000250051	1.42127e-06	15.7204	0.0144586	0.0139177	-0.00391746	-13.4676	49.941	48.5677	11.631	0.0194773	0.00466734	0.0200287	13.4757	3.45072e+07	1.44002e+08	1.48079e+08	-76.5243	0.0000000E+000	0.0000000E+000	0.0000000E+000	76.5243	0.0000000E+000	0.0000000E+000	0.0000000E+000	-76.5243	0.0000000E+000	0.0000000E+000	0.0000000E+000	-13.4757	0.0000000E+000	0.0000000E+000	0.0000000E+000	13.4757	4.1731	76.5243	5.78724e-05	-3.69324e-07	-3.38757e-10	-3.68986e-07	0.272364	201227	184.573	201043
0.0146812	50.3254	14.5694	52.3919	-16.1459	462.86	0.272611	-0.000617852	744077	57540.3	1	12	0.00490803	9.36792e-05	0	-6.35079e-05	0.000383687	1.17114e-06	-18.9141	0.0125016	0.0118266	0.00405241	-16.1466	52.4044	50.3372	14.5735	0.0183341	0.00530778	0.0190869	16.1459	5.75403e+07	1.98755e+08	2.06916e+08	-73.8541	0.0000000E+000	0.0000000E+000	0.0000000E+000	73.8541	0.0000000E+000	0.0000000E+000	0.0000000E+000	-73.8541	0.0000000E+000	0.0000000E+000	0.0000000E+000	-16.1459	0.0000000E+000	0.0000000E+000	0.0000000E+000	16.1459	3.45419	73.8541	0.000153603	-1.68433e-07	-2.37062e-10	-1.68196e-07	0.272227	441223	621.001	440602
0.0100092	52.9171	18.7096	56.1272	-19.4718	673.042	0.272607	8.82114e-05	849880	94436.5	1	12	0.004908	8.74443e-05	0	0.000131936	-5.54027e-05	1.56851e-06	-16.7299	0.0179373	0.017178	0.00516342	-19.4709	56.1451	52.9342	18.7148	0.0167977	0.00593906	0.0178167	19.4718	9.44364e+07	2.67098e+08	2.83301e+08	-70.5282	0.0000000E+000	0.0000000E+000	0.0000000E+000	70.5282	0.0000000E+000	0.0000000E+000	0.0000000E+000	-70.5282	0.0000000E+000	0.0000000E+000	0.0000000E+000	-19.4718	0.0000000E+000	0.0000000E+000	0.0000000E+000	19.4718	2.82834	70.5282	0.000195444	2.4047e-08	-4.88715e-12	2.40519e-08	0.272662	3.09038e+06	628.068	3.09101e+06