File: txt/19507_R316_UA717_SOC00_C01.mpt
EC-Lab ASCII FILE
Nb header lines : 65

Potentio Electrochemical Impedance Spectroscopy

Run on channel : 1 (SN 66354)
User :
CE vs. WE compliance from -10 V to 10 V
Electrode connection : standard
Potential control : Ewe
Ewe ctrl range : min = -10.00 V, max = 10.00 V
Safety Limits :
	Do not start on E overload
Acquisition started on : 12/04/2025 15:42:20.320
Technique started on : 12/04/2025 15:42:22.231
Loaded Setting File :  C:\Users\Celltest\OneDrive - store-dot.com\Documents\EC-Lab\Data\@Biologic Test Protocols\anode half cell EIS SOC00.mps
Saved on :
	File : 19507_R316_UA717_SOC00_C01.mpr
	Directory : C:\Users\Celltest\OneDrive - store-dot.com\Documents\EC-Lab\Data\Charmaine\
	Host : 169.254.61.224
Device : VMP-3e (SN .003165)
Address : USB
EC-LAB for windows v11.62 (software)
Internet server v27.00 (firmware)
Command interpretor v12.03 (firmware)
Electrode material :
Initial state :
Electrolyte :
Comments :
Electrode surface area : 0.001 cm²
Characteristic mass : 0.001 g
Equivalent Weight : 0.000 g/eq.
Density : 0.000 g/cm3
Volume (V) : 0.001 cm³
Record Ece
Cycle Definition : Charge/Discharge alternance
Mode                Single sine
E (V)               0.0000
vs.                 Eoc
tE (h:m:s)          0:00:0.0000
record              0
dI                  0.000
unit dI             mA
dt (s)              0.000
fi                  100.000
unit fi             kHz
ff                  10.000
unit ff             mHz
Nd                  6
Points              per decade
spacing             Logarithmic
Va (mV)             5.0
pw                  0.10
Na                  2
corr                0
E range min (V)     -10.000
E range max (V)     10.000
I Range             Auto
Bandwidth           5
nc cycles           0
goto Ns'            0
nr cycles           0
inc. cycle          0

freq/Hz	Re(Z)/Ohm	-Im(Z)/Ohm	|Z|/Ohm	Phase(Z)/deg	time/s	<Ewe>/V	<I>/mA	Cs/µF	Cp/µF	cycle number	I Range	|Ewe|/V	|I|/A	Ns	(Q-Qo)/mA.h	<Ece>/V	|Ece|/V	Phase(Zce)/deg	|Zce|/Ohm	Re(Zce)/Ohm	-Im(Zce)/Ohm	Phase(Zwe-ce)/deg	|Zwe-ce|/Ohm	Re(Zwe-ce)/Ohm	-Im(Zwe-ce)/Ohm	Re(Y)/Ohm-1	Im(Y)/Ohm-1	|Y|/Ohm-1	Phase(Y)/deg	Re(C)/nF	Im(C)/nF	|C|/nF	Phase(C)/deg	Re(M)	Im(M)	|M|	Phase(M)/deg	Re(Permittivity)	Im(Permittivity)	|Permittivity|	Phase(Permittivity)/deg	Re(Resistivity)/Ohm.cm	Im(Resistivity)/Ohm.cm	|Resistivity|/Ohm.cm	Phase(Resistivity)/deg	Re(Conductivity)/mS/cm	Im(Conductivity)/mS/cm	|Conductivity|/mS/cm	Phase(Conductivity)/deg	Tan(Delta)	Loss Angle(Delta)/deg	dq/mA.h	Pwe/W	Pce/W	Pwe-ce/W	<Ewe-Ece>/V	Rwe/Ohm	Rce/Ohm	Rwe-ce/Ohm		Ewe-Ece/V
100004	1.49255	0.53809	1.58658	-19.8251	1.91054	0.281677	0.0784531	2.95767	0.340198	1	9	0.00473385	0.00298367	0	1.09424e-05	0.000392232	3.80532e-05	93.9283	0.0127538	-0.000873738	-0.0127239	-19.4022	1.58149	1.49168	0.525366	0.592929	0.213761	0.630285	19.8251	340.198	943.641	1003.09	-70.1749	0.0000000E+000	0.0000000E+000	0.0000000E+000	70.1749	0.0000000E+000	0.0000000E+000	0.0000000E+000	-70.1749	0.0000000E+000	0.0000000E+000	0.0000000E+000	-19.8251	0.0000000E+000	0.0000000E+000	0.0000000E+000	19.8251	2.7738	70.1749	1.09424e-05	2.20984e-05	3.07718e-08	2.20677e-05	0.281285	3590.39	4.99957	3585.39
68132	1.62971	0.623328	1.74484	-20.9308	2.41754	0.281681	0.0838177	3.74759	0.478268	1	9	0.00506532	0.00290302	0	3.87386e-05	-8.47007e-05	2.67876e-05	73.2546	0.00922749	0.00265863	-0.00883619	-20.6285	1.7442	1.63237	0.614492	0.535298	0.20474	0.573117	20.9308	478.269	1250.45	1338.79	-69.0692	0.0000000E+000	0.0000000E+000	0.0000000E+000	69.0692	0.0000000E+000	0.0000000E+000	0.0000000E+000	-69.0692	0.0000000E+000	0.0000000E+000	0.0000000E+000	-20.9308	0.0000000E+000	0.0000000E+000	0.0000000E+000	20.9308	2.61453	69.0692	2.77962e-05	2.36098e-05	-7.09942e-09	2.36169e-05	0.281766	3360.64	1.01054	3361.65
46420.4	1.7991	0.710831	1.93444	-21.5591	2.92454	0.281689	0.0771864	4.82331	0.65128	1	9	0.00507184	0.00262187	0	4.31768e-05	-6.56234e-05	9.86565e-06	65.8208	0.00376283	0.00154122	-0.00343271	-21.4478	1.93461	1.80064	0.707398	0.48078	0.189957	0.516946	21.5591	651.28	1648.38	1772.38	-68.4409	0.0000000E+000	0.0000000E+000	0.0000000E+000	68.4409	0.0000000E+000	0.0000000E+000	0.0000000E+000	-68.4409	0.0000000E+000	0.0000000E+000	0.0000000E+000	-21.5591	0.0000000E+000	0.0000000E+000	0.0000000E+000	21.5591	2.53099	68.4409	4.43817e-06	2.17426e-05	-5.06524e-09	2.17476e-05	0.281755	3649.46	0.850194	3650.31
31621.1	1.96349	0.839698	2.13551	-23.1542	3.43156	0.281689	0.0791609	5.99404	0.926749	1	9	0.00534855	0.00250458	0	5.22323e-05	0.000296845	2.39547e-05	20.1487	0.00956436	0.00897904	-0.00329451	-22.9788	2.14248	1.97247	0.836403	0.430553	0.184128	0.468272	23.1542	926.749	2167.05	2356.9	-66.8458	0.0000000E+000	0.0000000E+000	0.0000000E+000	66.8458	0.0000000E+000	0.0000000E+000	0.0000000E+000	-66.8458	0.0000000E+000	0.0000000E+000	0.0000000E+000	-23.1542	0.0000000E+000	0.0000000E+000	0.0000000E+000	23.1542	2.33834	66.8458	9.05559e-06	2.22988e-05	2.34986e-08	2.22753e-05	0.281393	3558.44	3.7499	3554.69
21544.7	2.16208	0.934838	2.35553	-23.3827	3.69052	0.281691	0.0735355	7.90212	1.24463	1	9	0.00460696	0.00195581	0	5.8392e-05	0.000411309	1.16244e-05	-120.799	0.00594352	-0.00304325	0.0051053	-23.5261	2.35477	2.15903	0.939943	0.389669	0.168485	0.424534	23.3827	1244.63	2878.56	3136.12	-66.6173	0.0000000E+000	0.0000000E+000	0.0000000E+000	66.6173	0.0000000E+000	0.0000000E+000	0.0000000E+000	-66.6173	0.0000000E+000	0.0000000E+000	0.0000000E+000	-23.3827	0.0000000E+000	0.0000000E+000	0.0000000E+000	23.3827	2.31278	66.6173	6.15969e-06	2.07143e-05	3.02458e-08	2.0684e-05	0.28128	3830.68	5.59335	3825.09
14678.6	2.37719	0.988262	2.57443	-22.574	4.07553	0.281688	0.0813589	10.9714	1.61676	1	9	0.00475109	0.00184549	0	6.50431e-05	-0.000103778	9.91989e-06	23.1254	0.0053752	0.00494329	-0.00211108	-22.4885	2.57819	2.38213	0.986151	0.358675	0.149111	0.388435	22.574	1616.76	3888.99	4211.67	-67.426	0.0000000E+000	0.0000000E+000	0.0000000E+000	67.426	0.0000000E+000	0.0000000E+000	0.0000000E+000	-67.426	0.0000000E+000	0.0000000E+000	0.0000000E+000	-22.574	0.0000000E+000	0.0000000E+000	0.0000000E+000	22.574	2.40543	67.426	6.65102e-06	2.29178e-05	-8.44327e-09	2.29263e-05	0.281792	3462.29	1.27556	3463.57
10002.2	2.60078	1.08895	2.81955	-22.7191	4.45854	0.281695	0.078304	14.6122	2.17958	1	9	0.00498826	0.00176917	0	7.38353e-05	0.000106072	1.00675e-05	-135.001	0.00569055	-0.00402393	0.00402372	-22.8262	2.8174	2.59675	1.09297	0.327148	0.136977	0.354667	22.7191	2179.58	5205.56	5643.44	-67.2809	0.0000000E+000	0.0000000E+000	0.0000000E+000	67.2809	0.0000000E+000	0.0000000E+000	0.0000000E+000	-67.2809	0.0000000E+000	0.0000000E+000	0.0000000E+000	-22.7191	0.0000000E+000	0.0000000E+000	0.0000000E+000	22.7191	2.38834	67.2809	8.79221e-06	2.20579e-05	8.30589e-09	2.20496e-05	0.281589	3597.46	1.35462	3596.1
6810.42	2.86638	1.17995	3.09975	-22.3745	4.71755	0.281679	0.0700336	19.8054	2.86983	1	9	0.00483978	0.00156135	0	8.03697e-05	6.79177e-05	6.92674e-05	-141.651	0.0443639	-0.0347921	0.0275257	-23.0948	3.07829	2.83159	1.20747	0.29832	0.122803	0.322607	22.3745	2869.83	6971.53	7539.11	-67.6255	0.0000000E+000	0.0000000E+000	0.0000000E+000	67.6255	0.0000000E+000	0.0000000E+000	0.0000000E+000	-67.6255	0.0000000E+000	0.0000000E+000	0.0000000E+000	-22.3745	0.0000000E+000	0.0000000E+000	0.0000000E+000	22.3745	2.42925	67.6255	6.53448e-06	1.9727e-05	4.75652e-09	1.97223e-05	0.281612	4022.06	0.969788	4021.09
4646	3.12937	1.34783	3.40729	-23.3017	4.98162	0.281643	0.054424	25.4159	3.97702	1	9	0.00471956	0.00138514	0	8.41709e-05	2.97631e-05	2.27617e-05	-10.688	0.0164328	0.0161477	0.00304765	-23.2416	3.42333	3.14552	1.35088	0.26955	0.116096	0.293488	23.3017	3977.02	9233.79	10053.8	-66.6983	0.0000000E+000	0.0000000E+000	0.0000000E+000	66.6983	0.0000000E+000	0.0000000E+000	0.0000000E+000	-66.6983	0.0000000E+000	0.0000000E+000	0.0000000E+000	-23.3017	0.0000000E+000	0.0000000E+000	0.0000000E+000	23.3017	2.32179	66.6983	3.80112e-06	1.53281e-05	1.61983e-09	1.53265e-05	0.281613	5174.98	0.546875	5174.43
3163.08	3.40866	1.5398	3.74031	-24.3102	5.35462	0.281499	0.0663826	32.6773	5.53805	1	9	0.00462951	0.00123773	0	9.20663e-05	-8.3915e-06	3.8451e-06	-18.5567	0.00310657	0.00294506	0.000988644	-24.3054	3.74341	3.41161	1.54079	0.243651	0.110064	0.267357	24.3102	5538.05	12259.6	13452.5	-65.6899	0.0000000E+000	0.0000000E+000	0.0000000E+000	65.6899	0.0000000E+000	0.0000000E+000	0.0000000E+000	-65.6899	0.0000000E+000	0.0000000E+000	0.0000000E+000	-24.3102	0.0000000E+000	0.0000000E+000	0.0000000E+000	24.3102	2.21371	65.6899	7.89542e-06	1.86866e-05	-5.5705e-10	1.86872e-05	0.281507	4240.55	0.126411	4240.67
2155.69	3.73621	1.77096	4.13467	-25.361	6.05184	0.281609	-0.0091687	41.6893	7.64822	1	10	0.00475074	0.001149	0	0.000100515	-6.56234e-05	4.98388e-06	-12.953	0.00433759	0.00422721	0.000972278	-25.3481	4.13891	3.74043	1.77193	0.218549	0.103592	0.241857	25.361	7648.22	16135.5	17856.3	-64.639	0.0000000E+000	0.0000000E+000	0.0000000E+000	64.639	0.0000000E+000	0.0000000E+000	0.0000000E+000	-64.639	0.0000000E+000	0.0000000E+000	0.0000000E+000	-25.361	0.0000000E+000	0.0000000E+000	0.0000000E+000	25.361	2.1097	64.639	8.44917e-06	-2.58199e-06	6.01682e-10	-2.5826e-06	0.281675	30714.2	7.15733	30721.4
1468.59	4.07615	2.04681	4.56119	-26.6632	6.50311	0.28162	-0.00771147	52.947	10.6621	1	10	0.00468924	0.00102808	0	9.93741e-05	0.000335	1.03328e-05	-30.1162	0.0100506	0.00869389	0.00504295	-26.6708	4.57122	4.08484	2.05185	0.195927	0.0983835	0.219241	26.6632	10662.1	21233.1	23759.7	-63.3368	0.0000000E+000	0.0000000E+000	0.0000000E+000	63.3368	0.0000000E+000	0.0000000E+000	0.0000000E+000	-63.3368	0.0000000E+000	0.0000000E+000	0.0000000E+000	-26.6632	0.0000000E+000	0.0000000E+000	0.0000000E+000	26.6632	1.99146	63.3368	-1.1413e-06	-2.1717e-06	-2.58334e-09	-2.16912e-06	0.281285	36519.5	43.4418	36476.1
1000.32	4.43212	2.44667	5.0626	-28.9001	6.95381	0.281629	-0.00747295	65.0288	15.1883	1	10	0.00465125	0.000918748	0	9.76728e-05	2.97631e-05	4.08955e-06	-73.4872	0.00445122	0.00126517	0.00426764	-28.9354	5.06577	4.43338	2.45094	0.172928	0.0954616	0.197527	28.9001	15188.3	27513.5	31427.4	-61.0999	0.0000000E+000	0.0000000E+000	0.0000000E+000	61.0999	0.0000000E+000	0.0000000E+000	0.0000000E+000	-61.0999	0.0000000E+000	0.0000000E+000	0.0000000E+000	-28.9001	0.0000000E+000	0.0000000E+000	0.0000000E+000	28.9001	1.81149	61.0999	-1.70135e-06	-2.1046e-06	-2.22418e-10	-2.10437e-06	0.281599	37686.4	3.98278	37682.4
681.09	4.82983	2.98232	5.6764	-31.6944	7.40451	0.281611	-0.00894882	78.3541	21.6284	1	10	0.0046241	0.000814619	0	9.69733e-05	0.000182382	1.03838e-05	-23.0963	0.0127469	0.0117252	0.00500031	-31.6753	5.689	4.84156	2.98732	0.149895	0.0925568	0.176168	31.6944	21628.4	35026.9	41166.4	-58.3055	0.0000000E+000	0.0000000E+000	0.0000000E+000	58.3055	0.0000000E+000	0.0000000E+000	0.0000000E+000	-58.3055	0.0000000E+000	0.0000000E+000	0.0000000E+000	-31.6944	0.0000000E+000	0.0000000E+000	0.0000000E+000	31.6944	1.61949	58.3055	-6.99488e-07	-2.52009e-06	-1.6321e-09	-2.51846e-06	0.281429	31469.1	20.3805	31448.7
463.961	5.2884	3.74098	6.47782	-35.2753	7.85633	0.281612	-0.00867676	91.6966	30.5821	1	10	0.00459771	0.000709762	0	9.58615e-05	0.000144227	3.6678e-06	-32.2911	0.00516765	0.00436844	0.00276067	-35.273	6.48298	5.29277	3.74374	0.126028	0.0891513	0.154373	35.2753	30582.1	43232.1	52955.4	-54.7247	0.0000000E+000	0.0000000E+000	0.0000000E+000	54.7247	0.0000000E+000	0.0000000E+000	0.0000000E+000	-54.7247	0.0000000E+000	0.0000000E+000	0.0000000E+000	-35.2753	0.0000000E+000	0.0000000E+000	0.0000000E+000	35.2753	1.41364	54.7247	-1.11185e-06	-2.44348e-06	-1.25142e-09	-2.44223e-06	0.281468	32455.9	16.6222	32439.3
316.316	5.90025	4.77675	7.59146	-38.9931	8.30407	0.281604	-0.00959359	105.333	41.7043	1	10	0.00459063	0.000604709	0	9.48783e-05	0.000468541	8.6366e-06	25.8554	0.0142822	0.0128525	-0.00622851	-38.8956	7.59754	5.9131	4.77053	0.102381	0.0828862	0.131727	38.9931	41704.3	51513.2	66278.7	-51.0069	0.0000000E+000	0.0000000E+000	0.0000000E+000	51.0069	0.0000000E+000	0.0000000E+000	0.0000000E+000	-51.0069	0.0000000E+000	0.0000000E+000	0.0000000E+000	-38.9931	0.0000000E+000	0.0000000E+000	0.0000000E+000	38.9931	1.2352	51.0069	-9.83181e-07	-2.70159e-06	-4.49499e-09	-2.6971e-06	0.281135	29353.3	48.839	29304.5
215.345	6.74825	6.20808	9.16947	-42.6126	8.75455	0.281616	-0.00892274	119.05	54.5702	1	10	0.00458122	0.000499616	0	9.33385e-05	0.000335	8.06059e-06	-67.0311	0.0161336	0.00629582	0.0148544	-42.6542	9.18416	6.75455	6.22293	0.0802607	0.0738361	0.109058	42.6126	54570.2	59318.4	80601.3	-47.3874	0.0000000E+000	0.0000000E+000	0.0000000E+000	47.3874	0.0000000E+000	0.0000000E+000	0.0000000E+000	-47.3874	0.0000000E+000	0.0000000E+000	0.0000000E+000	-42.6126	0.0000000E+000	0.0000000E+000	0.0000000E+000	42.6126	1.08701	47.3874	-1.5398e-06	-2.51278e-06	-2.98912e-09	-2.50979e-06	0.281281	31561.5	37.5445	31524
146.737	8.0109	8.11543	11.4033	-45.3714	9.20047	0.28161	-0.0103278	133.65	67.6911	1	10	0.00457776	0.000401442	0	9.16971e-05	-4.65461e-05	5.68518e-06	-89.3091	0.0141619	0.00017077	0.0141608	-45.4207	11.4135	8.01107	8.12959	0.0616059	0.0624097	0.0876941	45.3714	67691.1	66819.2	95115.2	-44.6286	0.0000000E+000	0.0000000E+000	0.0000000E+000	44.6286	0.0000000E+000	0.0000000E+000	0.0000000E+000	-44.6286	0.0000000E+000	0.0000000E+000	0.0000000E+000	-45.3714	0.0000000E+000	0.0000000E+000	0.0000000E+000	45.3714	0.98712	44.6286	-1.64141e-06	-2.90841e-06	4.80719e-10	-2.90889e-06	0.281656	27267.2	4.50687	27271.7
100.032	9.91378	10.3841	14.3566	-46.3274	9.65184	0.281608	-0.0116061	153.219	80.1577	1	10	0.00456405	0.000317905	0	9.07766e-05	0.000296845	1.28584e-05	-103.119	0.0404472	-0.0091806	0.0393915	-46.4622	14.3788	9.9046	10.4235	0.0480988	0.0503807	0.0696542	46.3274	80157.7	76527.1	110823	-43.6726	0.0000000E+000	0.0000000E+000	0.0000000E+000	43.6726	0.0000000E+000	0.0000000E+000	0.0000000E+000	-43.6726	0.0000000E+000	0.0000000E+000	0.0000000E+000	-46.3274	0.0000000E+000	0.0000000E+000	0.0000000E+000	46.3274	0.954706	43.6726	-9.20425e-07	-3.26838e-06	-3.44523e-09	-3.26494e-06	0.281311	24263.7	25.5766	24238.1
68.104	12.8684	12.8969	18.2189	-45.0633	10.1144	0.281616	-0.00449142	181.201	90.8011	1	10	0.00456709	0.000250679	0	9.04638e-05	-4.65461e-05	7.75164e-06	-83.6077	0.0309226	0.00344281	0.0307303	-45.1239	18.2431	12.8719	12.9276	0.0387689	0.0388547	0.0548882	45.0633	90801.1	90600.5	128270	-44.9367	0.0000000E+000	0.0000000E+000	0.0000000E+000	44.9367	0.0000000E+000	0.0000000E+000	0.0000000E+000	-44.9367	0.0000000E+000	0.0000000E+000	0.0000000E+000	-45.0633	0.0000000E+000	0.0000000E+000	0.0000000E+000	45.0633	0.997791	44.9366	-3.12791e-07	-1.26486e-06	2.09058e-10	-1.26507e-06	0.281663	62701	10.3633	62711.3
46.4415	17.1079	15.461	23.0591	-42.1052	10.7907	0.281663	-0.00222284	221.655	99.6474	1	11	0.00457985	0.000198614	0	8.99776e-05	-8.3915e-06	4.60031e-06	-63.0619	0.0231621	0.010493	0.0206489	-42.1257	23.0807	17.1184	15.4816	0.0321745	0.0290772	0.0433668	42.1052	99647.4	110262	148618	-47.8948	0.0000000E+000	0.0000000E+000	0.0000000E+000	47.8948	0.0000000E+000	0.0000000E+000	0.0000000E+000	-47.8948	0.0000000E+000	0.0000000E+000	0.0000000E+000	-42.1052	0.0000000E+000	0.0000000E+000	0.0000000E+000	42.1052	1.10652	47.8948	-4.86248e-07	-6.26092e-07	1.8653e-11	-6.26111e-07	0.281671	126713	3.77512	126716
31.6296	22.2686	16.9131	27.9633	-37.2167	11.2206	0.281664	-0.00228615	297.512	108.836	1	11	0.00456063	0.000163094	0	8.93652e-05	0.000277768	6.1204e-06	57.3618	0.037527	0.0202395	-0.0316012	-37.1401	27.9603	22.2889	16.8815	0.0284785	0.0216295	0.0357612	37.2167	108836	143300	179945	-52.7833	0.0000000E+000	0.0000000E+000	0.0000000E+000	52.7833	0.0000000E+000	0.0000000E+000	0.0000000E+000	-52.7833	0.0000000E+000	0.0000000E+000	0.0000000E+000	-37.2167	0.0000000E+000	0.0000000E+000	0.0000000E+000	37.2167	1.31665	52.7833	-6.12368e-07	-6.43927e-07	-6.3502e-10	-6.43292e-07	0.281386	123204	121.5	123083
21.5517	27.8482	17.2642	32.7655	-31.7965	11.6414	0.281687	-0.00227163	427.75	118.755	1	11	0.00456528	0.000139332	0	8.91234e-05	2.97631e-05	1.54724e-05	43.903	0.111047	0.0800107	-0.0770041	-31.6085	32.7931	27.9282	17.1872	0.0259397	0.0160811	0.0305199	31.7965	118755	191559	225383	-58.2035	0.0000000E+000	0.0000000E+000	0.0000000E+000	58.2035	0.0000000E+000	0.0000000E+000	0.0000000E+000	-58.2035	0.0000000E+000	0.0000000E+000	0.0000000E+000	-31.7965	0.0000000E+000	0.0000000E+000	0.0000000E+000	31.7965	1.61305	58.2035	-2.41859e-07	-6.3989e-07	-6.76108e-11	-6.39822e-07	0.281658	124002	13.1021	123989
14.6852	33.0195	16.2178	36.7873	-26.1583	12.1012	0.281667	-0.00164787	668.267	129.879	1	11	0.00456164	0.000124	0	8.87124e-05	0.000258691	9.82941e-06	12.7301	0.0792692	0.0773207	-0.0174676	-26.0809	36.849	33.0968	16.2003	0.0243992	0.0119838	0.0271833	26.1583	129879	264434	294608	-63.8417	0.0000000E+000	0.0000000E+000	0.0000000E+000	63.8417	0.0000000E+000	0.0000000E+000	0.0000000E+000	-63.8417	0.0000000E+000	0.0000000E+000	0.0000000E+000	-26.1583	0.0000000E+000	0.0000000E+000	0.0000000E+000	26.1583	2.03601	63.8417	-4.11014e-07	-4.64152e-07	-4.2629e-10	-4.63726e-07	0.281408	170928	156.985	170771
10.0032	37.4207	14.4789	40.1241	-21.1526	12.5518	0.281678	-0.00193201	1098.87	143.089	1	11	0.00456594	0.000113795	0	8.93609e-05	4.88404e-05	8.01236e-06	-35.9555	0.0704102	0.0569952	0.0413418	-21.1782	40.1922	37.4777	14.5202	0.0232435	0.00899341	0.0249227	21.1526	143089	369813	396530	-68.8474	0.0000000E+000	0.0000000E+000	0.0000000E+000	68.8474	0.0000000E+000	0.0000000E+000	0.0000000E+000	-68.8474	0.0000000E+000	0.0000000E+000	0.0000000E+000	-21.1526	0.0000000E+000	0.0000000E+000	0.0000000E+000	21.1526	2.5845	68.8474	6.48509e-07	-5.44205e-07	-9.43601e-11	-5.4411e-07	0.281629	145795	25.2796	145770
6.81719	40.9827	12.5258	42.8541	-16.9951	12.8905	0.281674	-0.000489738	1863.85	159.234	1	11	0.00455863	0.000106376	0	8.87296e-05	0.00012515	8.63712e-06	108.746	0.0811945	-0.0260939	-0.0768873	-16.9068	42.8067	40.9566	12.4489	0.022316	0.00682057	0.023335	16.9951	159234	520991	544782	-73.0049	0.0000000E+000	0.0000000E+000	0.0000000E+000	73.0049	0.0000000E+000	0.0000000E+000	0.0000000E+000	-73.0049	0.0000000E+000	0.0000000E+000	0.0000000E+000	-16.9951	0.0000000E+000	0.0000000E+000	0.0000000E+000	16.9951	3.27186	73.0049	-6.31309e-07	-1.37946e-07	-6.12905e-11	-1.37885e-07	0.281549	575153	255.544	574897
4.63925	43.6173	10.6082	44.8888	-13.6695	13.3745	0.281678	-0.0013872	3233.94	180.608	1	11	0.00455919	0.000101566	0	8.78642e-05	0.000258691	6.82844e-06	75.9289	0.0672314	0.0163456	-0.0652141	-13.5837	44.8893	43.6337	10.543	0.0216463	0.00526458	0.0222773	13.6695	180608	742600	764248	-76.3305	0.0000000E+000	0.0000000E+000	0.0000000E+000	76.3305	0.0000000E+000	0.0000000E+000	0.0000000E+000	-76.3305	0.0000000E+000	0.0000000E+000	0.0000000E+000	-13.6695	0.0000000E+000	0.0000000E+000	0.0000000E+000	13.6695	4.11168	76.3305	-8.65336e-07	-3.90744e-07	-3.58856e-10	-3.90385e-07	0.281419	203055	186.484	202868
3.1604	45.7643	9.12106	46.6643	-11.2717	14.0674	0.28168	-0.000529584	5521.2	210.937	1	11	0.00456419	9.7809e-05	0	8.87134e-05	0.000106072	4.4198e-06	-66.8604	0.045188	0.0177577	0.0415527	-11.3174	46.6899	45.782	9.16261	0.0210163	0.00418866	0.0214296	11.2717	210937	1.05836e+06	1.07918e+06	-78.7283	0.0000000E+000	0.0000000E+000	0.0000000E+000	78.7283	0.0000000E+000	0.0000000E+000	0.0000000E+000	-78.7283	0.0000000E+000	0.0000000E+000	0.0000000E+000	-11.2717	0.0000000E+000	0.0000000E+000	0.0000000E+000	11.2717	5.01743	78.7283	8.49164e-07	-1.49173e-07	-5.61742e-11	-1.49117e-07	0.281574	531890	200.294	531690
2.15577	47.4866	7.80653	48.124	-9.33561	15.0711	0.281684	4.47365e-05	9457.14	248.859	1	11	0.0045667	9.48945e-05	0	9.03535e-05	2.97631e-05	2.28405e-06	-42.7314	0.0240693	0.01768	0.0163326	-9.35137	48.1441	47.5043	7.82287	0.0205044	0.00337082	0.0207797	9.33561	248859	1.51379e+06	1.53411e+06	-80.6644	0.0000000E+000	0.0000000E+000	0.0000000E+000	80.6644	0.0000000E+000	0.0000000E+000	0.0000000E+000	-80.6644	0.0000000E+000	0.0000000E+000	0.0000000E+000	-9.33561	0.0000000E+000	0.0000000E+000	0.0000000E+000	9.33561	6.08293	80.6644	1.64012e-06	1.26016e-08	1.3315e-12	1.26002e-08	0.281654	6.29651e+06	665.298	6.29584e+06
1.46631	49.0055	6.86392	49.4838	-7.97323	17.2585	0.281686	-0.000442576	15813.3	304.257	1	12	0.00456563	9.22651e-05	0	9.05976e-05	0.000144227	1.85871e-06	13.4091	0.0201454	0.0195962	-0.00467176	-7.96473	49.5026	49.0251	6.85925	0.0200133	0.00280315	0.0202086	7.97323	304257	2.17226e+06	2.19347e+06	-82.0268	0.0000000E+000	0.0000000E+000	0.0000000E+000	82.0268	0.0000000E+000	0.0000000E+000	0.0000000E+000	-82.0268	0.0000000E+000	0.0000000E+000	0.0000000E+000	-7.97323	0.0000000E+000	0.0000000E+000	0.0000000E+000	7.97323	7.13957	82.0268	2.44128e-07	-1.24667e-07	-6.38314e-11	-1.24603e-07	0.281542	636469	325.881	636143
1.00006	50.312	6.06623	50.6763	-6.87509	19.3879	0.281681	-0.000366407	26234.6	375.924	1	12	0.00456532	9.00878e-05	0	8.78536e-05	0.000468541	4.96349e-06	27.9017	0.0550962	0.0486913	-0.0257826	-6.8396	50.7216	50.3606	6.04044	0.0195912	0.00236215	0.0197331	6.87509	375924	3.11783e+06	3.14042e+06	-83.1249	0.0000000E+000	0.0000000E+000	0.0000000E+000	83.1249	0.0000000E+000	0.0000000E+000	0.0000000E+000	-83.1249	0.0000000E+000	0.0000000E+000	0.0000000E+000	-6.87509	0.0000000E+000	0.0000000E+000	0.0000000E+000	6.87509	8.29378	83.1249	-2.74408e-06	-1.0321e-07	-1.71677e-10	-1.03038e-07	0.281212	768765	1278.75	767486
0.681362	51.4019	5.46676	51.6918	-6.07077	22.5	0.281676	-0.000380305	42727.9	477.891	1	12	0.00456548	8.83211e-05	0	8.36649e-05	0.000258691	3.92167e-06	27.1585	0.0444024	0.0395069	-0.0202677	-6.04382	51.729	51.4414	5.4465	0.0192369	0.00204591	0.0193454	6.07077	477891	4.49343e+06	4.51877e+06	-83.9292	0.0000000E+000	0.0000000E+000	0.0000000E+000	83.9292	0.0000000E+000	0.0000000E+000	0.0000000E+000	-83.9292	0.0000000E+000	0.0000000E+000	0.0000000E+000	-6.07077	0.0000000E+000	0.0000000E+000	0.0000000E+000	6.07077	9.40263	83.9292	-4.18869e-06	-1.07123e-07	-9.83814e-11	-1.07024e-07	0.281417	740659	680.22	739978
0.464091	52.4845	5.08993	52.7307	-5.53921	27.0567	0.281682	-0.000487282	67376.1	627.772	1	12	0.00456459	8.65643e-05	0	7.96921e-05	-0.00016101	1.77753e-06	-73.4102	0.0205342	0.00586289	0.0196795	-5.55987	52.7384	52.4903	5.10961	0.0188757	0.00183056	0.0189643	5.53921	627772	6.47323e+06	6.5036e+06	-84.4608	0.0000000E+000	0.0000000E+000	0.0000000E+000	84.4608	0.0000000E+000	0.0000000E+000	0.0000000E+000	-84.4608	0.0000000E+000	0.0000000E+000	0.0000000E+000	-5.53921	0.0000000E+000	0.0000000E+000	0.0000000E+000	5.53921	10.3114	84.4608	-3.97277e-06	-1.37258e-07	7.84573e-11	-1.37337e-07	0.281843	578067	330.425	578397
0.316193	53.4078	4.97688	53.6392	-5.32381	33.7301	0.281679	-0.000763629	101137	870.683	1	12	0.00456554	8.51157e-05	0	7.90209e-05	1.06858e-05	2.26942e-06	15.8954	0.0266628	0.0256433	-0.00730247	-5.31351	53.6641	53.4335	4.96958	0.0185627	0.00172979	0.0186431	5.32381	870684	9.34346e+06	9.38394e+06	-84.6762	0.0000000E+000	0.0000000E+000	0.0000000E+000	84.6762	0.0000000E+000	0.0000000E+000	0.0000000E+000	-84.6762	0.0000000E+000	0.0000000E+000	0.0000000E+000	-5.32381	0.0000000E+000	0.0000000E+000	0.0000000E+000	5.32381	10.7312	84.6762	-6.71235e-07	-2.15099e-07	-8.16e-12	-2.15091e-07	0.281669	368869	13.9934	368855
0.215268	54.254	5.0693	54.4903	-5.33801	43.5236	0.281683	-0.000781247	145846	1262.26	1	12	0.00456549	8.37852e-05	0	8.46963e-05	0.000220536	2.7812e-06	10.4568	0.0331944	0.0326431	-0.00602456	-5.32851	54.5223	54.2867	5.06327	0.0182723	0.0017073	0.0183519	5.33801	1.26226e+06	1.35093e+07	1.35682e+07	-84.662	0.0000000E+000	0.0000000E+000	0.0000000E+000	84.662	0.0000000E+000	0.0000000E+000	0.0000000E+000	-84.662	0.0000000E+000	0.0000000E+000	0.0000000E+000	-5.33801	0.0000000E+000	0.0000000E+000	0.0000000E+000	5.33801	10.7025	84.662	5.67542e-06	-2.20064e-07	-1.72293e-10	-2.19892e-07	0.281462	360556	282.288	360273
0.146929	55.0786	5.36644	55.3394	-5.5649	57.862	0.281677	-0.000699504	201849	1898.15	1	12	0.00456748	8.25358e-05	0	9.77786e-05	6.79177e-05	2.17894e-06	-25.76	0.0264	0.0237764	0.0114735	-5.57433	55.3642	55.1023	5.37791	0.0179851	0.00175234	0.0180703	5.5649	1.89815e+06	1.94817e+07	1.9574e+07	-84.4351	0.0000000E+000	0.0000000E+000	0.0000000E+000	84.4351	0.0000000E+000	0.0000000E+000	0.0000000E+000	-84.4351	0.0000000E+000	0.0000000E+000	0.0000000E+000	-5.5649	0.0000000E+000	0.0000000E+000	0.0000000E+000	5.5649	10.2635	84.4351	1.30824e-05	-1.97034e-07	-4.75087e-11	-1.96987e-07	0.281609	402681	97.0941	402584
0.0999041	56.1105	5.94908	56.425	-6.05214	78.9391	0.281678	-0.000326778	267785	2976.76	1	12	0.00456611	8.09234e-05	0	0.000114888	0.000201459	3.28269e-06	-5.14319	0.0405653	0.040402	0.00363648	-6.05148	56.4656	56.1509	5.95272	0.0176239	0.00186856	0.0177226	6.05214	2.97676e+06	2.80762e+07	2.82335e+07	-83.9479	0.0000000E+000	0.0000000E+000	0.0000000E+000	83.9479	0.0000000E+000	0.0000000E+000	0.0000000E+000	-83.9479	0.0000000E+000	0.0000000E+000	0.0000000E+000	-6.05214	0.0000000E+000	0.0000000E+000	0.0000000E+000	6.05214	9.4318	83.9479	1.7109e-05	-9.20462e-08	-6.58323e-11	-9.19803e-08	0.281477	861988	616.501	861371
0.0680626	57.252	6.98404	57.6764	-6.95502	109.867	0.281675	5.32812e-05	334815	4909.33	1	12	0.00456536	7.91548e-05	0	0.000128023	0.000144227	2.50732e-06	-32.6267	0.0316762	0.0266777	0.0170787	-6.96864	57.7049	57.2786	7.00111	0.0172105	0.00209947	0.0173381	6.95502	4.90933e+06	4.02445e+07	4.05428e+07	-83.045	0.0000000E+000	0.0000000E+000	0.0000000E+000	83.045	0.0000000E+000	0.0000000E+000	0.0000000E+000	-83.045	0.0000000E+000	0.0000000E+000	0.0000000E+000	-6.95502	0.0000000E+000	0.0000000E+000	0.0000000E+000	6.95502	8.19755	83.045	1.31352e-05	1.5008e-08	7.68458e-12	1.50003e-08	0.28153	5.28657e+06	2706.9	5.28386e+06
0.0464052	58.5666	8.49412	59.1794	-8.25226	155.218	0.281675	0.000485944	403771	8318.22	1	12	0.00456763	7.71827e-05	0	0.000121019	0.000392232	2.3278e-06	-8.10271	0.0301595	0.0298585	0.00425093	-8.25218	59.2096	58.5965	8.49837	0.0167228	0.00242536	0.0168978	8.25226	8.31822e+06	5.73539e+07	5.79539e+07	-81.7477	0.0000000E+000	0.0000000E+000	0.0000000E+000	81.7477	0.0000000E+000	0.0000000E+000	0.0000000E+000	-81.7477	0.0000000E+000	0.0000000E+000	0.0000000E+000	-8.25226	0.0000000E+000	0.0000000E+000	0.0000000E+000	8.25226	6.89497	81.7477	-7.00428e-06	1.36878e-07	1.90603e-10	1.36687e-07	0.281282	579644	807.155	578837
0.0315922	59.967	10.3417	60.8522	-9.78475	221.822	0.281676	0.000566844	487136	14069.5	1	12	0.00456484	7.50151e-05	0	7.68746e-05	0.000468541	2.77348e-06	8.54187	0.0369723	0.0365622	-0.00549157	-9.77381	60.8873	60.0036	10.3362	0.0161942	0.00279278	0.0164333	9.78475	1.40695e+07	8.1583e+07	8.27873e+07	-80.2153	0.0000000E+000	0.0000000E+000	0.0000000E+000	80.2153	0.0000000E+000	0.0000000E+000	0.0000000E+000	-80.2153	0.0000000E+000	0.0000000E+000	0.0000000E+000	-9.78475	0.0000000E+000	0.0000000E+000	0.0000000E+000	9.78475	5.79859	80.2153	-4.4144e-05	1.59666e-07	2.6559e-10	1.59401e-07	0.281207	496920	826.579	496093
0.0215268	61.7886	12.5882	63.0578	-11.5153	319.561	0.281674	0.000245876	587324	23406	1	12	0.00456596	7.2409e-05	0	-9.53899e-06	0.000201459	3.30611e-06	-8.55828	0.0456588	0.0451504	0.00679474	-11.5132	63.1034	61.8337	12.595	0.0155393	0.00316582	0.0158585	11.5153	2.3406e+07	1.14887e+08	1.17247e+08	-78.4847	0.0000000E+000	0.0000000E+000	0.0000000E+000	78.4847	0.0000000E+000	0.0000000E+000	0.0000000E+000	-78.4847	0.0000000E+000	0.0000000E+000	0.0000000E+000	-11.5153	0.0000000E+000	0.0000000E+000	0.0000000E+000	11.5153	4.90845	78.4847	-8.64136e-05	6.9257e-08	4.9534e-11	6.92074e-08	0.281472	1.14559e+06	819.35	1.14477e+06
0.0146812	64.1321	15.753	66.0385	-13.8006	462.862	0.281669	-0.000199588	688169	39158.8	1	12	0.00456627	6.91456e-05	0	-0.000114303	0.000201459	2.26616e-06	2.58866	0.0327737	0.0327403	-0.00148023	-13.7926	66.0699	64.1648	15.7516	0.0147055	0.00361219	0.0151427	13.8006	3.91588e+07	1.59419e+08	1.64158e+08	-76.1994	0.0000000E+000	0.0000000E+000	0.0000000E+000	76.1994	0.0000000E+000	0.0000000E+000	0.0000000E+000	-76.1994	0.0000000E+000	0.0000000E+000	0.0000000E+000	-13.8006	0.0000000E+000	0.0000000E+000	0.0000000E+000	13.8006	4.07109	76.1994	-0.000104764	-5.62178e-08	-4.02088e-11	-5.61776e-08	0.281468	1.41125e+06	1009.37	1.41024e+06
0.0100092	66.7479	20.408	69.7981	-17.0008	673.044	0.281668	-0.000411373	779152	66609.3	1	12	0.00456456	6.53967e-05	0	-0.00016443	0.000449464	2.00501e-06	-19.0231	0.0306593	0.0289849	0.00999338	-17.0017	69.8287	66.7769	20.418	0.013701	0.00418902	0.014327	17.0008	6.66093e+07	2.17858e+08	2.27813e+08	-72.9992	0.0000000E+000	0.0000000E+000	0.0000000E+000	72.9992	0.0000000E+000	0.0000000E+000	0.0000000E+000	-72.9992	0.0000000E+000	0.0000000E+000	0.0000000E+000	-17.0008	0.0000000E+000	0.0000000E+000	0.0000000E+000	17.0008	3.27068	72.9992	-5.01264e-05	-1.15871e-07	-1.84897e-10	-1.15686e-07	0.281219	684704	1092.6	683611