File: txt/19504_R316_UA716_SOC00_C06.mpt
EC-Lab ASCII FILE
Nb header lines : 65

Potentio Electrochemical Impedance Spectroscopy

Run on channel : 6 (SN 65795)
User :
CE vs. WE compliance from -10 V to 10 V
Electrode connection : standard
Potential control : Ewe
Ewe ctrl range : min = -10.00 V, max = 10.00 V
Safety Limits :
	Do not start on E overload
Acquisition started on : 12/04/2025 15:15:05.388
Technique started on : 12/04/2025 15:15:07.167
Loaded Setting File :  C:\Users\Celltest\OneDrive - store-dot.com\Documents\EC-Lab\Data\Charmaine\19495_R316_UA628_SOC00_C05.mpr
Saved on :
	File : 19504_R316_UA716_SOC00_C06.mpr
	Directory : C:\Users\Celltest\OneDrive - store-dot.com\Documents\EC-Lab\Data\Charmaine\
	Host : 169.254.61.224
Device : VMP-3e (SN .003165)
Address : USB
EC-LAB for windows v11.62 (software)
Internet server v27.00 (firmware)
Command interpretor v12.03 (firmware)
Electrode material :
Initial state :
Electrolyte :
Comments :
Electrode surface area : 0.001 cm²
Characteristic mass : 0.001 g
Equivalent Weight : 0.000 g/eq.
Density : 0.000 g/cm3
Volume (V) : 0.001 cm³
Record Ece
Cycle Definition : Charge/Discharge alternance
Mode                Single sine
E (V)               0.0000
vs.                 Eoc
tE (h:m:s)          0:00:0.0000
record              0
dI                  0.000
unit dI             mA
dt (s)              0.000
fi                  100.000
unit fi             kHz
ff                  10.000
unit ff             mHz
Nd                  6
Points              per decade
spacing             Logarithmic
Va (mV)             5.0
pw                  0.10
Na                  2
corr                0
E range min (V)     -10.000
E range max (V)     10.000
I Range             Auto
Bandwidth           5
nc cycles           0
goto Ns'            0
nr cycles           0
inc. cycle          0

freq/Hz	Re(Z)/Ohm	-Im(Z)/Ohm	|Z|/Ohm	Phase(Z)/deg	time/s	<Ewe>/V	<I>/mA	Cs/µF	Cp/µF	cycle number	I Range	|Ewe|/V	|I|/A	Ns	(Q-Qo)/mA.h	<Ece>/V	|Ece|/V	Phase(Zce)/deg	|Zce|/Ohm	Re(Zce)/Ohm	-Im(Zce)/Ohm	Phase(Zwe-ce)/deg	|Zwe-ce|/Ohm	Re(Zwe-ce)/Ohm	-Im(Zwe-ce)/Ohm	Re(Y)/Ohm-1	Im(Y)/Ohm-1	|Y|/Ohm-1	Phase(Y)/deg	Re(C)/nF	Im(C)/nF	|C|/nF	Phase(C)/deg	Re(M)	Im(M)	|M|	Phase(M)/deg	Re(Permittivity)	Im(Permittivity)	|Permittivity|	Phase(Permittivity)/deg	Re(Resistivity)/Ohm.cm	Im(Resistivity)/Ohm.cm	|Resistivity|/Ohm.cm	Phase(Resistivity)/deg	Re(Conductivity)/mS/cm	Im(Conductivity)/mS/cm	|Conductivity|/mS/cm	Phase(Conductivity)/deg	Tan(Delta)	Loss Angle(Delta)/deg	dq/mA.h	Pwe/W	Pce/W	Pwe-ce/W	<Ewe-Ece>/V	Rwe/Ohm	Rce/Ohm	Rwe-ce/Ohm		Ewe-Ece/V
100004	1.41948	0.320272	1.45516	-12.7145	1.77855	0.217004	0.0556818	4.96918	0.240713	1	9	0.00249897	0.00171731	0	6.19343e-06	0.000106829	2.88831e-05	54.528	0.0168188	0.00976003	-0.0136972	-12.1066	1.46175	1.42924	0.306575	0.670357	0.15125	0.687209	12.7145	240.713	1066.87	1093.69	-77.2855	0.0000000E+000	0.0000000E+000	0.0000000E+000	77.2855	0.0000000E+000	0.0000000E+000	0.0000000E+000	-77.2855	0.0000000E+000	0.0000000E+000	0.0000000E+000	-12.7145	0.0000000E+000	0.0000000E+000	0.0000000E+000	12.7145	4.43211	77.2855	6.19343e-06	1.20832e-05	5.94843e-09	1.20772e-05	0.216897	3897.21	1.91856	3895.29
68132	-0.154716	-0.0682985	0.16912	156.181	1.9356	0.217002	0.0498708	-34.2025	-5.57813	1	9	4.0168e-05	0.000237511	0	7.99545e-06	8.77309e-05	1.10706e-05	136.918	0.0466109	-0.0340433	-0.0318376	152.054	0.213676	-0.188759	-0.100136	-5.40933	-2.38792	5.91295	-156.181	-5578.13	-12636.1	13812.5	113.819	0.0000000E+000	0.0000000E+000	0.0000000E+000	-113.819	0.0000000E+000	0.0000000E+000	0.0000000E+000	113.819	0.0000000E+000	0.0000000E+000	0.0000000E+000	156.181	0.0000000E+000	0.0000000E+000	0.0000000E+000	-156.181	2.26529	66.1812	1.80203e-06	1.08221e-05	4.37521e-09	1.08177e-05	0.216914	4351.28	1.75916	4349.52
46420.4	1.58285	0.640935	1.7077	-22.0442	2.80054	0.216952	0.0185809	5.34931	0.753537	1	9	0.00513091	0.00300458	0	0.000116565	0.000164123	2.14307e-05	79.6922	0.00713267	0.0012763	-0.00701756	-21.8097	1.70626	1.58413	0.633918	0.542775	0.219782	0.585584	22.0442	753.537	1860.94	2007.71	-67.9558	0.0000000E+000	0.0000000E+000	0.0000000E+000	67.9558	0.0000000E+000	0.0000000E+000	0.0000000E+000	-67.9558	0.0000000E+000	0.0000000E+000	0.0000000E+000	-22.0442	0.0000000E+000	0.0000000E+000	0.0000000E+000	22.0442	2.4696	67.9558	0.00010857	4.03116e-06	3.04956e-09	4.02811e-06	0.216788	11676.1	8.83288	11667.2
31621.1	1.73979	0.724725	1.8847	-22.6147	3.30752	0.21695	0.0230881	6.94495	1.02691	1	9	0.0050604	0.00268499	0	0.000116012	0.000183221	8.44347e-06	74.8865	0.00314469	0.000819923	-0.00303592	-22.5198	1.88429	1.74061	0.721689	0.489793	0.204028	0.530589	22.6147	1026.91	2465.22	2670.55	-67.3853	0.0000000E+000	0.0000000E+000	0.0000000E+000	67.3853	0.0000000E+000	0.0000000E+000	0.0000000E+000	-67.3853	0.0000000E+000	0.0000000E+000	0.0000000E+000	-22.6147	0.0000000E+000	0.0000000E+000	0.0000000E+000	22.6147	2.40062	67.3853	-5.53213e-07	5.00898e-06	4.23024e-09	5.00475e-06	0.216767	9396.62	7.93572	9388.68
21544.7	1.91015	0.806511	2.07343	-22.8907	3.69056	0.216956	0.0250624	9.15945	1.38583	1	9	0.00527016	0.00254176	0	0.000121621	-0.000141446	9.40398e-06	-28.6888	0.00369979	0.00324561	0.00177609	-22.901	2.07711	1.91339	0.808288	0.444311	0.187599	0.482292	22.8907	1385.83	3282.22	3562.79	-67.1093	0.0000000E+000	0.0000000E+000	0.0000000E+000	67.1093	0.0000000E+000	0.0000000E+000	0.0000000E+000	-67.1093	0.0000000E+000	0.0000000E+000	0.0000000E+000	-22.8907	0.0000000E+000	0.0000000E+000	0.0000000E+000	22.8907	2.36841	67.1093	5.60847e-06	5.43743e-06	-3.54496e-09	5.44098e-06	0.217097	8656.63	5.64374	8662.28
14678.6	2.10484	0.90187	2.28991	-23.1939	4.07352	0.216955	0.0247644	12.0224	1.86484	1	9	0.00497178	0.00217116	0	0.000124785	0.000183221	1.03714e-05	3.83843	0.00477691	0.00476619	-0.000319781	-23.1397	2.29417	2.1096	0.90155	0.401402	0.171991	0.436697	23.1939	1864.84	4352.27	4734.96	-66.8061	0.0000000E+000	0.0000000E+000	0.0000000E+000	66.8061	0.0000000E+000	0.0000000E+000	0.0000000E+000	-66.8061	0.0000000E+000	0.0000000E+000	0.0000000E+000	-23.1939	0.0000000E+000	0.0000000E+000	0.0000000E+000	23.1939	2.33386	66.8061	3.16466e-06	5.37275e-06	4.53736e-09	5.36821e-06	0.216771	8760.76	7.39858	8753.36
10002.2	2.31029	1.00162	2.51807	-23.439	4.33251	0.216956	0.0173516	15.8863	2.51357	1	9	0.00482137	0.00191471	0	0.000127676	0.000297809	7.64233e-06	-135.249	0.00399137	-0.00283458	0.00281001	-23.5234	2.51659	2.30745	1.00443	0.364361	0.157967	0.39713	23.439	2513.57	5797.69	6319.12	-66.561	0.0000000E+000	0.0000000E+000	0.0000000E+000	66.561	0.0000000E+000	0.0000000E+000	0.0000000E+000	-66.561	0.0000000E+000	0.0000000E+000	0.0000000E+000	-23.439	0.0000000E+000	0.0000000E+000	0.0000000E+000	23.439	2.30656	66.561	2.89041e-06	3.76455e-06	5.16748e-09	3.75938e-06	0.216659	12503.5	17.1632	12486.4
6810.42	2.52726	1.11322	2.76157	-23.7727	4.59355	0.216961	0.0248016	20.9926	3.41124	1	9	0.00465411	0.00168531	0	0.000130086	-4.59553e-05	2.43872e-05	-89.693	0.0144705	7.75435e-05	0.0144703	-24.0462	2.76751	2.52734	1.12769	0.331388	0.145971	0.362112	23.7727	3411.24	7744.31	8462.32	-66.2273	0.0000000E+000	0.0000000E+000	0.0000000E+000	66.2273	0.0000000E+000	0.0000000E+000	0.0000000E+000	-66.2273	0.0000000E+000	0.0000000E+000	0.0000000E+000	-23.7727	0.0000000E+000	0.0000000E+000	0.0000000E+000	23.7727	2.27023	66.2273	2.41045e-06	5.38099e-06	-1.13977e-09	5.38213e-06	0.217007	8747.87	1.85292	8749.72
4646	2.77656	1.28206	3.05826	-24.7849	4.8586	0.21693	-0.00306136	26.7197	4.69571	1	9	0.00453846	0.001484	0	0.000129772	-7.75924e-06	1.63855e-05	-8.15495	0.0110415	0.0109298	0.00156624	-24.7259	3.06884	2.78749	1.28363	0.296864	0.137076	0.326983	24.7849	4695.71	10169.5	11201.2	-65.2151	0.0000000E+000	0.0000000E+000	0.0000000E+000	65.2151	0.0000000E+000	0.0000000E+000	0.0000000E+000	-65.2151	0.0000000E+000	0.0000000E+000	0.0000000E+000	-24.7849	0.0000000E+000	0.0000000E+000	0.0000000E+000	24.7849	2.16569	65.2151	-3.14492e-07	-6.64099e-07	2.37538e-11	-6.64123e-07	0.216937	70860.6	2.53458	70863.1
3163.08	3.05386	1.48897	3.39751	-25.9925	5.40861	0.216753	-0.0300303	33.7928	6.49044	1	9	0.0049761	0.00146463	0	0.000127291	0.000240515	4.29512e-06	104.536	0.00293256	-0.000736036	-0.00283869	-25.9548	3.39561	3.05312	1.48613	0.264562	0.128992	0.294333	25.9925	6490.44	13311.8	14809.8	-64.0075	0.0000000E+000	0.0000000E+000	0.0000000E+000	64.0075	0.0000000E+000	0.0000000E+000	0.0000000E+000	-64.0075	0.0000000E+000	0.0000000E+000	0.0000000E+000	-25.9925	0.0000000E+000	0.0000000E+000	0.0000000E+000	25.9925	2.05099	64.0075	-2.48124e-06	-6.50918e-06	-7.22275e-09	-6.50195e-06	0.216513	7217.82	8.00908	7209.81
2155.69	3.37181	1.71315	3.78206	-26.9343	6.10583	0.216878	-0.0161329	43.096	8.84247	1	10	0.00509576	0.00134735	0	0.000129324	-0.000217838	1.22858e-05	20.2894	0.0091185	0.00855272	-0.00316196	-26.8331	3.78826	3.38036	1.70999	0.235725	0.119768	0.264406	26.9343	8842.47	17403.6	19521.1	-63.0657	0.0000000E+000	0.0000000E+000	0.0000000E+000	63.0657	0.0000000E+000	0.0000000E+000	0.0000000E+000	-63.0657	0.0000000E+000	0.0000000E+000	0.0000000E+000	-26.9343	0.0000000E+000	0.0000000E+000	0.0000000E+000	26.9343	1.96819	63.0657	2.03389e-06	-3.49888e-06	3.51436e-09	-3.5024e-06	0.217096	13443.2	13.5027	13456.7
1468.59	3.71731	2.01135	4.22658	-28.4168	6.55605	0.216877	-0.0167553	53.8804	12.202	1	10	0.00500858	0.00118502	0	0.000127908	0.000278711	9.02804e-06	-20.5646	0.00761847	0.007133	0.00267608	-28.4028	4.23412	3.72444	2.01403	0.20809	0.112593	0.236598	28.4168	12202	22551.3	25640.8	-61.5832	0.0000000E+000	0.0000000E+000	0.0000000E+000	61.5832	0.0000000E+000	0.0000000E+000	0.0000000E+000	-61.5832	0.0000000E+000	0.0000000E+000	0.0000000E+000	-28.4168	0.0000000E+000	0.0000000E+000	0.0000000E+000	28.4168	1.84816	61.5832	-1.4167e-06	-3.63383e-06	-4.66988e-09	-3.62916e-06	0.216598	12943.8	16.6343	12927.2
1000.32	4.08723	2.38252	4.73094	-30.2387	7.0068	0.216873	-0.0164534	66.7798	16.9364	1	10	0.00492416	0.00104084	0	0.000125063	0.000355103	1.4851e-05	-15.7924	0.0142682	0.0137297	0.00388315	-30.1957	4.74476	4.10096	2.3864	0.182614	0.106449	0.211374	30.2387	16936.4	29054.6	33630.5	-59.7613	0.0000000E+000	0.0000000E+000	0.0000000E+000	59.7613	0.0000000E+000	0.0000000E+000	0.0000000E+000	-59.7613	0.0000000E+000	0.0000000E+000	0.0000000E+000	-30.2387	0.0000000E+000	0.0000000E+000	0.0000000E+000	30.2387	1.71551	59.7613	-2.84489e-06	-3.5683e-06	-5.84266e-09	-3.56246e-06	0.216518	13181	21.5824	13159.5
681.09	4.53619	2.88522	5.37601	-32.4582	7.45756	0.216871	-0.0173813	80.9909	23.3278	1	10	0.00489862	0.000911199	0	0.00012382	0.000125927	1.04807e-05	-21.8024	0.0115021	0.0106794	0.00427197	-32.4356	5.38732	4.54687	2.8895	0.156953	0.0998295	0.186011	32.4582	23327.8	36676.4	43466.6	-57.5418	0.0000000E+000	0.0000000E+000	0.0000000E+000	57.5418	0.0000000E+000	0.0000000E+000	0.0000000E+000	-57.5418	0.0000000E+000	0.0000000E+000	0.0000000E+000	-32.4582	0.0000000E+000	0.0000000E+000	0.0000000E+000	32.4582	1.57221	57.5418	-1.24312e-06	-3.76951e-06	-2.18878e-09	-3.76732e-06	0.216745	12477.2	7.24496	12470
463.961	5.04116	3.53858	6.15913	-35.0665	7.90935	0.216873	-0.0163677	96.9414	31.9985	1	10	0.00485804	0.000788755	0	0.000121433	0.000431496	1.1e-05	-10.7761	0.0139461	0.0137001	0.00260751	-35.0132	6.17185	5.05486	3.54119	0.13289	0.0932804	0.162361	35.0665	31998.5	45585.9	55695.4	-54.9335	0.0000000E+000	0.0000000E+000	0.0000000E+000	54.9335	0.0000000E+000	0.0000000E+000	0.0000000E+000	-54.9335	0.0000000E+000	0.0000000E+000	0.0000000E+000	-35.0665	0.0000000E+000	0.0000000E+000	0.0000000E+000	35.0665	1.42463	54.9335	-2.38624e-06	-3.54971e-06	-7.06259e-09	-3.54264e-06	0.216441	13250	26.3626	13223.7
316.316	5.6904	4.45505	7.2269	-38.0576	8.35708	0.216876	-0.0167441	112.94	42.9187	1	10	0.00485833	0.000672256	0	0.000119955	0.000145025	1.29404e-05	-46.913	0.0192492	0.0131493	0.014058	-38.081	7.24592	5.70355	4.4691	0.108953	0.0852997	0.138372	38.0576	42918.7	54819.8	69622.1	-51.9424	0.0000000E+000	0.0000000E+000	0.0000000E+000	51.9424	0.0000000E+000	0.0000000E+000	0.0000000E+000	-51.9424	0.0000000E+000	0.0000000E+000	0.0000000E+000	-38.0576	0.0000000E+000	0.0000000E+000	0.0000000E+000	38.0576	1.27729	51.9424	-1.47807e-06	-3.63139e-06	-2.42831e-09	-3.62897e-06	0.216731	12952.4	8.66126	12943.7
215.345	6.5319	5.67947	8.65575	-41.0069	8.80652	0.216876	-0.016759	130.13	56.0253	1	10	0.00484291	0.000559502	0	0.00011819	-0.000122347	1.20551e-05	-85.2238	0.0215462	0.001794	0.0214713	-41.1062	8.67121	6.53369	5.70094	0.0871826	0.075805	0.11553	41.0069	56025.3	64434.1	85384.9	-48.9931	0.0000000E+000	0.0000000E+000	0.0000000E+000	48.9931	0.0000000E+000	0.0000000E+000	0.0000000E+000	-48.9931	0.0000000E+000	0.0000000E+000	0.0000000E+000	-41.0069	0.0000000E+000	0.0000000E+000	0.0000000E+000	41.0069	1.15009	48.9931	-1.76497e-06	-3.63463e-06	2.05042e-09	-3.63668e-06	0.216999	12940.9	7.3004	12948.2
146.737	7.73648	7.23846	10.5947	-43.0952	9.25248	0.216874	-0.0175677	149.842	69.9432	1	10	0.00481894	0.000454842	0	0.000116286	0.000278711	6.21516e-06	-103.806	0.0136644	-0.00326086	0.0132696	-43.1596	10.6014	7.73322	7.25173	0.0689228	0.0644861	0.0943865	43.0952	69943.2	74755.4	102374	-46.9048	0.0000000E+000	0.0000000E+000	0.0000000E+000	46.9048	0.0000000E+000	0.0000000E+000	0.0000000E+000	-46.9048	0.0000000E+000	0.0000000E+000	0.0000000E+000	-43.0952	0.0000000E+000	0.0000000E+000	0.0000000E+000	43.0952	1.0688	46.9048	-1.9049e-06	-3.80997e-06	-4.89631e-09	-3.80507e-06	0.216595	12345.1	15.865	12329.2
100.032	9.59029	9.11595	13.2316	-43.5474	9.70381	0.216876	-0.016718	174.534	82.844	1	10	0.00481417	0.00036384	0	0.000114125	0.000240515	6.8061e-06	-75.888	0.0187063	0.00456093	0.0181418	-43.5907	13.2474	9.59485	9.13409	0.0547784	0.0520691	0.0755769	43.5474	82844	87154.7	120246	-46.4526	0.0000000E+000	0.0000000E+000	0.0000000E+000	46.4526	0.0000000E+000	0.0000000E+000	0.0000000E+000	-46.4526	0.0000000E+000	0.0000000E+000	0.0000000E+000	-43.5474	0.0000000E+000	0.0000000E+000	0.0000000E+000	43.5474	1.05203	46.4526	-2.16025e-06	-3.62574e-06	-4.02094e-09	-3.62172e-06	0.216636	12972.6	14.3866	12958.2
68.104	12.3199	11.0957	16.58	-42.0071	10.1654	0.216887	-0.0138299	210.617	94.3268	1	10	0.00481649	0.000290501	0	0.00011236	0.000183221	7.5906e-06	-21.1145	0.0261294	0.0243751	0.00941268	-41.975	16.6044	12.3443	11.1051	0.0448168	0.0403634	0.0603137	42.0071	94326.8	104734	140950	-47.9929	0.0000000E+000	0.0000000E+000	0.0000000E+000	47.9929	0.0000000E+000	0.0000000E+000	0.0000000E+000	-47.9929	0.0000000E+000	0.0000000E+000	0.0000000E+000	-42.0071	0.0000000E+000	0.0000000E+000	0.0000000E+000	42.0071	1.11033	47.9929	-1.76518e-06	-2.99953e-06	-2.53394e-09	-2.997e-06	0.216704	15682.4	13.2482	15669.2
46.4415	16.0857	12.7425	20.5213	-38.385	10.8417	0.216917	-0.00814025	268.941	103.696	1	11	0.00482168	0.00023496	0	0.000109684	0.000164123	7.60158e-06	74.1421	0.0323526	0.00884045	-0.0311214	-38.3015	20.5089	16.0946	12.7114	0.0381972	0.0302585	0.0487299	38.385	103696	130902	166997	-51.615	0.0000000E+000	0.0000000E+000	0.0000000E+000	51.615	0.0000000E+000	0.0000000E+000	0.0000000E+000	-51.615	0.0000000E+000	0.0000000E+000	0.0000000E+000	-38.385	0.0000000E+000	0.0000000E+000	0.0000000E+000	38.385	1.26237	51.615	-2.67643e-06	-1.76576e-06	-1.336e-09	-1.76443e-06	0.216753	26647.5	20.1619	26627.3
31.6296	20.5187	13.4405	24.5288	-33.2262	11.2715	0.216933	-0.00818987	374.38	112.406	1	11	0.00482183	0.000196578	0	0.000109128	0.000183221	8.52385e-06	-122.233	0.0433611	-0.0231275	0.0366784	-33.3275	24.5296	20.4956	13.4771	0.0341033	0.0223389	0.0407684	33.2262	112406	171602	205140	-56.7738	0.0000000E+000	0.0000000E+000	0.0000000E+000	56.7738	0.0000000E+000	0.0000000E+000	0.0000000E+000	-56.7738	0.0000000E+000	0.0000000E+000	0.0000000E+000	-33.2262	0.0000000E+000	0.0000000E+000	0.0000000E+000	33.2262	1.52664	56.7738	-5.55607e-07	-1.77666e-06	-1.50056e-09	-1.77516e-06	0.21675	26488	22.3717	26465.7
21.5517	24.9404	12.9164	28.0866	-27.3792	11.6925	0.216924	-0.00841557	571.738	120.915	1	11	0.00481508	0.000171437	0	0.000108295	-7.75924e-06	6.99373e-06	48.5367	0.0407947	0.0270118	-0.0305707	-27.2985	28.0965	24.9674	12.8858	0.0316159	0.0163736	0.0356042	27.3792	120915	233477	262930	-62.6208	0.0000000E+000	0.0000000E+000	0.0000000E+000	62.6208	0.0000000E+000	0.0000000E+000	0.0000000E+000	-62.6208	0.0000000E+000	0.0000000E+000	0.0000000E+000	-27.3792	0.0000000E+000	0.0000000E+000	0.0000000E+000	27.3792	1.93091	62.6208	-8.33205e-07	-1.82554e-06	6.52985e-11	-1.8256e-06	0.216932	25776.5	0.922011	25777.4
14.6852	28.7719	11.3901	30.9445	-21.5974	12.1532	0.216935	-0.00750381	951.511	128.915	1	11	0.00481633	0.000155644	0	0.000107981	-7.75924e-06	1.8382e-05	-131.914	0.118103	-0.0788947	0.0878856	-21.8027	30.9036	28.693	11.478	0.0300472	0.0118949	0.032316	21.5974	128915	325646	350234	-68.4026	0.0000000E+000	0.0000000E+000	0.0000000E+000	68.4026	0.0000000E+000	0.0000000E+000	0.0000000E+000	-68.4026	0.0000000E+000	0.0000000E+000	0.0000000E+000	-21.5974	0.0000000E+000	0.0000000E+000	0.0000000E+000	21.5974	2.52605	68.4026	-3.14246e-07	-1.62784e-06	5.82239e-11	-1.6279e-06	0.216943	28910	1.03404	28911.1
10.0032	31.6323	9.58432	33.0524	-16.8564	12.6038	0.216922	-0.00757693	1660.05	139.584	1	11	0.00481674	0.000145731	0	0.000105922	0.000183221	3.5564e-06	-47.3841	0.0244039	0.0165234	0.0179591	-16.8779	33.0734	31.6488	9.60228	0.0289551	0.00877316	0.030255	16.8564	139584	460687	481369	-73.1436	0.0000000E+000	0.0000000E+000	0.0000000E+000	73.1436	0.0000000E+000	0.0000000E+000	0.0000000E+000	-73.1436	0.0000000E+000	0.0000000E+000	0.0000000E+000	-16.8564	0.0000000E+000	0.0000000E+000	0.0000000E+000	16.8564	3.30042	73.1436	-2.05889e-06	-1.6436e-06	-1.38825e-09	-1.64221e-06	0.216739	28629.3	24.1814	28605.1
6.81719	33.6257	7.7349	34.5039	-12.9544	12.9435	0.216914	-0.00812123	3018.28	151.682	1	11	0.0048113	0.000139442	0	0.000106459	0.000202319	8.3022e-06	41.0009	0.0595387	0.0449338	-0.0390616	-12.8745	34.539	33.6707	7.69584	0.0282446	0.00649709	0.0289822	12.9544	151682	659402	676623	-77.0456	0.0000000E+000	0.0000000E+000	0.0000000E+000	77.0456	0.0000000E+000	0.0000000E+000	0.0000000E+000	-77.0456	0.0000000E+000	0.0000000E+000	0.0000000E+000	-12.9544	0.0000000E+000	0.0000000E+000	0.0000000E+000	12.9544	4.34727	77.0456	5.37687e-07	-1.76161e-06	-1.64308e-09	-1.75997e-06	0.216712	26709.6	24.9124	26684.7
4.63925	35.0039	6.18523	35.5462	-10.0208	13.4274	0.216913	-0.00767542	5546.46	167.935	1	11	0.00480614	0.000135208	0	0.000105295	-8.41514e-05	6.38366e-06	-5.85447	0.0472136	0.0469673	0.00481589	-10.0153	35.5933	35.0509	6.19005	0.0277032	0.00489519	0.0281324	10.0208	167935	950392	965115	-79.9792	0.0000000E+000	0.0000000E+000	0.0000000E+000	79.9792	0.0000000E+000	0.0000000E+000	0.0000000E+000	-79.9792	0.0000000E+000	0.0000000E+000	0.0000000E+000	-10.0208	0.0000000E+000	0.0000000E+000	0.0000000E+000	10.0208	5.65928	79.9792	-1.16396e-06	-1.6649e-06	6.45897e-10	-1.66554e-06	0.216997	28260.7	10.9638	28271.7
3.1604	35.9805	4.98079	36.3236	-7.88139	14.1205	0.216903	-0.00750008	10110.7	190.108	1	11	0.00480981	0.000132416	0	0.000102032	0.000106829	6.61477e-06	-2.46308	0.0499546	0.0499085	0.00214683	-7.87396	36.3733	36.0304	4.98294	0.0272703	0.00377503	0.0275303	7.88139	190107	1.37331e+06	1.3864e+06	-82.1186	0.0000000E+000	0.0000000E+000	0.0000000E+000	82.1186	0.0000000E+000	0.0000000E+000	0.0000000E+000	-82.1186	0.0000000E+000	0.0000000E+000	0.0000000E+000	-7.88139	0.0000000E+000	0.0000000E+000	0.0000000E+000	7.88139	7.22385	82.1186	-3.26363e-06	-1.62679e-06	-8.01226e-10	-1.62599e-06	0.216796	28920.1	14.2437	28905.8
2.15577	36.7983	4.05523	37.0211	-6.2887	15.1241	0.216906	-0.0068102	18205.5	218.441	1	11	0.00481444	0.000130046	0	9.90763e-05	0.000106829	4.52999e-06	4.83974	0.0348338	0.0347096	-0.00293889	-6.2783	37.0553	36.8331	4.05229	0.0268491	0.00295881	0.0270116	6.2887	218441	1.9822e+06	1.9942e+06	-83.7113	0.0000000E+000	0.0000000E+000	0.0000000E+000	83.7113	0.0000000E+000	0.0000000E+000	0.0000000E+000	-83.7113	0.0000000E+000	0.0000000E+000	0.0000000E+000	-6.2887	0.0000000E+000	0.0000000E+000	0.0000000E+000	6.2887	9.0743	83.7113	-2.95553e-06	-1.47717e-06	-7.27526e-10	-1.47644e-06	0.216799	31850.1	15.6866	31834.4
1.46631	37.3613	3.42388	37.5178	-5.2361	17.3116	0.216908	-0.00677129	31701.2	264.02	1	12	0.00481478	0.000128333	0	9.69727e-05	0.000202319	3.86472e-06	-13.1097	0.0301147	0.0293299	0.00683053	-5.2424	37.5477	37.3906	3.43071	0.0265428	0.00243244	0.026654	5.2361	264020	2.88098e+06	2.89305e+06	-84.7639	0.0000000E+000	0.0000000E+000	0.0000000E+000	84.7639	0.0000000E+000	0.0000000E+000	0.0000000E+000	-84.7639	0.0000000E+000	0.0000000E+000	0.0000000E+000	-5.2361	0.0000000E+000	0.0000000E+000	0.0000000E+000	5.2361	10.912	84.7639	-2.1036e-06	-1.46875e-06	-1.36996e-09	-1.46738e-06	0.216706	32033.6	29.879	32003.7
1.00006	37.8572	2.97423	37.9738	-4.49218	19.4416	0.216904	-0.0066808	53507.9	328.245	1	12	0.00481384	0.000126767	0	9.70708e-05	0.000355103	2.90196e-06	25.36	0.022892	0.020686	-0.00980474	-4.475	37.9937	37.8778	2.96442	0.026253	0.00206256	0.0263339	4.49218	328245	4.17803e+06	4.19091e+06	-85.5078	0.0000000E+000	0.0000000E+000	0.0000000E+000	85.5078	0.0000000E+000	0.0000000E+000	0.0000000E+000	-85.5078	0.0000000E+000	0.0000000E+000	0.0000000E+000	-4.49218	0.0000000E+000	0.0000000E+000	0.0000000E+000	4.49218	12.7284	85.5078	9.81263e-08	-1.44909e-06	-2.37237e-09	-1.44672e-06	0.216549	32466.8	53.1529	32413.6
0.681362	38.3348	2.69098	38.4291	-4.0154	22.5521	0.216906	-0.00619225	86802.3	425.63	1	12	0.0048165	0.000125335	0	9.50178e-05	0.000240515	1.48348e-06	51.6221	0.0118362	0.00734843	-0.00927876	-4.00083	38.4358	38.3421	2.6817	0.0259581	0.00182217	0.0260219	4.0154	425630	6.06337e+06	6.07829e+06	-85.9846	0.0000000E+000	0.0000000E+000	0.0000000E+000	85.9846	0.0000000E+000	0.0000000E+000	0.0000000E+000	-85.9846	0.0000000E+000	0.0000000E+000	0.0000000E+000	-4.0154	0.0000000E+000	0.0000000E+000	0.0000000E+000	4.0154	14.2457	85.9846	-2.053e-06	-1.34314e-06	-1.48933e-09	-1.34165e-06	0.216666	35028.7	38.8413	34989.8
0.464091	38.7767	2.58989	38.8631	-3.8211	27.1086	0.216905	-0.00548646	132415	588.063	1	12	0.00481425	0.000123877	0	8.68661e-05	6.86329e-05	1.89672e-06	-11.0296	0.0153113	0.0150285	0.0029293	-3.82393	38.8783	38.7918	2.59282	0.0256741	0.00171477	0.0257313	3.8211	588062	8.80467e+06	8.82429e+06	-86.1789	0.0000000E+000	0.0000000E+000	0.0000000E+000	86.1789	0.0000000E+000	0.0000000E+000	0.0000000E+000	-86.1789	0.0000000E+000	0.0000000E+000	0.0000000E+000	-3.8211	0.0000000E+000	0.0000000E+000	0.0000000E+000	3.8211	14.9723	86.1789	-8.15172e-06	-1.19004e-06	-3.76551e-10	-1.18966e-06	0.216836	39534.6	12.5095	39522.1
0.316193	39.2068	2.63206	39.295	-3.84066	33.782	0.216911	-0.0047439	191237	858	1	12	0.00481732	0.000122594	0	6.91237e-05	-0.000160544	3.07382e-06	-86.5537	0.0250732	0.00150722	0.0250279	-3.87692	39.2982	39.2083	2.65709	0.0253913	0.00170459	0.0254485	3.84066	858001	1.27807e+07	1.28094e+07	-86.1593	0.0000000E+000	0.0000000E+000	0.0000000E+000	86.1593	0.0000000E+000	0.0000000E+000	0.0000000E+000	-86.1593	0.0000000E+000	0.0000000E+000	0.0000000E+000	-3.84066	0.0000000E+000	0.0000000E+000	0.0000000E+000	3.84066	14.8959	86.1593	-1.77424e-05	-1.029e-06	7.61603e-10	-1.02976e-06	0.217071	45724.1	33.8421	45758
0.215268	39.6298	2.73956	39.7243	-3.9545	43.5755	0.216909	-0.00439833	269873	1283.54	1	12	0.00480808	0.000121036	0	4.08243e-05	0.000125927	4.52316e-06	42.058	0.0373703	0.0277462	-0.0250337	-3.91575	39.7503	39.6575	2.71453	0.0251136	0.00173607	0.0251735	3.9545	1.28354e+06	1.85673e+07	1.86116e+07	-86.0455	0.0000000E+000	0.0000000E+000	0.0000000E+000	86.0455	0.0000000E+000	0.0000000E+000	0.0000000E+000	-86.0455	0.0000000E+000	0.0000000E+000	0.0000000E+000	-3.9545	0.0000000E+000	0.0000000E+000	0.0000000E+000	3.9545	14.4657	86.0455	-2.82994e-05	-9.54035e-07	-5.53868e-10	-9.53481e-07	0.216783	49316.2	28.6307	49287.5
0.146929	40.1391	3.09343	40.2581	-4.40695	57.9138	0.216904	-0.00436015	350165	2067.51	1	12	0.00481061	0.000119494	0	5.86831e-06	0.000240515	3.63337e-06	77.6834	0.0304063	0.00648607	-0.0297064	-4.36409	40.2623	40.1456	3.06372	0.0247663	0.00190868	0.0248397	4.40695	2.0675e+06	2.68271e+07	2.69067e+07	-85.5931	0.0000000E+000	0.0000000E+000	0.0000000E+000	85.5931	0.0000000E+000	0.0000000E+000	0.0000000E+000	-85.5931	0.0000000E+000	0.0000000E+000	0.0000000E+000	-4.40695	0.0000000E+000	0.0000000E+000	0.0000000E+000	4.40695	12.9756	85.5931	-3.4956e-05	-9.45734e-07	-1.04868e-09	-9.44685e-07	0.216663	49746.9	55.1621	49691.7
0.0999041	40.7563	3.69182	40.9232	-5.17589	78.9901	0.21691	-0.00422476	431515	3511.87	1	12	0.00481271	0.000117603	0	-2.63858e-05	0.000221417	1.72385e-06	22.9608	0.0146581	0.0134968	-0.00571815	-5.16621	40.9361	40.7698	3.6861	0.0243364	0.00220446	0.024436	5.17589	3.51187e+06	3.87697e+07	3.89285e+07	-84.8241	0.0000000E+000	0.0000000E+000	0.0000000E+000	84.8241	0.0000000E+000	0.0000000E+000	0.0000000E+000	-84.8241	0.0000000E+000	0.0000000E+000	0.0000000E+000	-5.17589	0.0000000E+000	0.0000000E+000	0.0000000E+000	5.17589	11.0396	84.8241	-3.22541e-05	-9.16391e-07	-9.35434e-10	-9.15455e-07	0.216688	51342.5	52.4095	51290.1
0.0680626	41.3966	4.56365	41.6474	-6.29099	109.918	0.216907	-0.00398386	512389	6152.43	1	12	0.00482015	0.000115737	0	-4.47579e-05	0.000431496	2.44708e-06	-22.0054	0.0211435	0.0196032	0.00792233	-6.29887	41.6678	41.4162	4.57157	0.0238665	0.00263109	0.0240111	6.29099	6.15243e+06	5.58085e+07	5.61466e+07	-83.709	0.0000000E+000	0.0000000E+000	0.0000000E+000	83.709	0.0000000E+000	0.0000000E+000	0.0000000E+000	-83.709	0.0000000E+000	0.0000000E+000	0.0000000E+000	-6.29099	0.0000000E+000	0.0000000E+000	0.0000000E+000	6.29099	9.07096	83.709	-1.83721e-05	-8.64125e-07	-1.71902e-09	-8.62406e-07	0.216475	54446.4	108.311	54338.1
0.0464052	42.075	5.58762	42.4444	-7.5647	155.269	0.216908	-0.00314813	613800	10637.5	1	12	0.0048155	0.000113454	0	-2.63492e-05	0.000106829	1.00657e-06	-5.8486	0.00887203	0.00882585	0.000904061	-7.56434	42.4533	42.0838	5.58852	0.0233552	0.0031016	0.0235602	7.5647	1.06375e+07	8.01008e+07	8.08041e+07	-82.4353	0.0000000E+000	0.0000000E+000	0.0000000E+000	82.4353	0.0000000E+000	0.0000000E+000	0.0000000E+000	-82.4353	0.0000000E+000	0.0000000E+000	0.0000000E+000	-7.5647	0.0000000E+000	0.0000000E+000	0.0000000E+000	7.5647	7.53004	82.4353	1.84087e-05	-6.82855e-07	-3.36312e-10	-6.82519e-07	0.216801	68900.6	33.9341	68866.6
0.0315922	43.0398	6.87546	43.5855	-9.07612	221.873	0.216903	-0.00212045	732721	18233	1	12	0.00481156	0.000110394	0	2.88875e-05	0.000183221	2.00138e-06	-28.2742	0.0181295	0.0159665	0.00858778	-9.08395	43.6026	43.0558	6.88405	0.0226561	0.00361924	0.0229434	9.07612	1.8233e+07	1.14137e+08	1.15584e+08	-80.9239	0.0000000E+000	0.0000000E+000	0.0000000E+000	80.9239	0.0000000E+000	0.0000000E+000	0.0000000E+000	-80.9239	0.0000000E+000	0.0000000E+000	0.0000000E+000	-9.07612	0.0000000E+000	0.0000000E+000	0.0000000E+000	9.07612	6.25992	80.9239	5.52367e-05	-4.59931e-07	-3.88511e-10	-4.59543e-07	0.21672	102291	86.4069	102205
0.0215268	44.4308	8.73864	45.282	-11.1269	319.612	0.216901	-0.000936505	846052	31508.9	1	12	0.00481343	0.000106299	0	9.09061e-05	0.000259613	1.66868e-06	-39.1311	0.015698	0.012177	0.00990696	-11.1362	45.2959	44.443	8.74855	0.0216687	0.00426179	0.0220838	11.1269	3.15089e+07	1.60204e+08	1.63273e+08	-78.8731	0.0000000E+000	0.0000000E+000	0.0000000E+000	78.8731	0.0000000E+000	0.0000000E+000	0.0000000E+000	-78.8731	0.0000000E+000	0.0000000E+000	0.0000000E+000	-11.1269	0.0000000E+000	0.0000000E+000	0.0000000E+000	11.1269	5.08441	78.8731	6.20186e-05	-2.03129e-07	-2.43129e-10	-2.02886e-07	0.216641	231607	277.215	231330
0.0146812	46.0535	11.3789	47.4385	-13.8787	462.913	0.216903	6.58603e-05	952704	54815	1	12	0.00481276	0.000101453	0	9.06843e-05	0.000412398	2.07335e-06	-35.1007	0.0204366	0.0167201	0.0117513	-13.8876	47.4575	46.0703	11.3907	0.0204645	0.00505638	0.0210799	13.8787	5.48149e+07	2.21851e+08	2.28522e+08	-76.1213	0.0000000E+000	0.0000000E+000	0.0000000E+000	76.1213	0.0000000E+000	0.0000000E+000	0.0000000E+000	-76.1213	0.0000000E+000	0.0000000E+000	0.0000000E+000	-13.8787	0.0000000E+000	0.0000000E+000	0.0000000E+000	13.8787	4.04727	76.1213	-2.21774e-07	1.42853e-08	2.71606e-11	1.42581e-08	0.21649	3.29338e+06	6261.71	3.28712e+06
0.0100092	47.9823	14.6493	50.1688	-16.9778	673.095	0.216902	0.000582166	1.08544e+06	92549.3	1	12	0.00481367	9.59495e-05	0	-5.74542e-05	8.77309e-05	2.24001e-06	2.39065	0.0233457	0.0233254	-0.000973808	-16.969	50.1908	48.0056	14.6484	0.019064	0.00582038	0.0199327	16.9778	9.25493e+07	3.03135e+08	3.16949e+08	-73.0222	0.0000000E+000	0.0000000E+000	0.0000000E+000	73.0222	0.0000000E+000	0.0000000E+000	0.0000000E+000	-73.0222	0.0000000E+000	0.0000000E+000	0.0000000E+000	-16.9778	0.0000000E+000	0.0000000E+000	0.0000000E+000	16.9778	3.27539	73.0222	-0.000148138	1.26273e-07	5.1074e-11	1.26222e-07	0.216814	372578	150.697	372427