File: txt/19509_R316_UA717_SOC00_C03.mpt
EC-Lab ASCII FILE
Nb header lines : 65

Potentio Electrochemical Impedance Spectroscopy

Run on channel : 3 (SN 65921)
User :
CE vs. WE compliance from -10 V to 10 V
Electrode connection : standard
Potential control : Ewe
Ewe ctrl range : min = -10.00 V, max = 10.00 V
Safety Limits :
	Do not start on E overload
Acquisition started on : 12/04/2025 15:42:34.892
Technique started on : 12/04/2025 15:42:36.946
Loaded Setting File :  C:\Users\Celltest\OneDrive - store-dot.com\Documents\EC-Lab\Data\@Biologic Test Protocols\anode half cell EIS SOC00.mps
Saved on :
	File : 19509_R316_UA717_SOC00_C03.mpr
	Directory : C:\Users\Celltest\OneDrive - store-dot.com\Documents\EC-Lab\Data\Charmaine\
	Host : 169.254.61.224
Device : VMP-3e (SN .003165)
Address : USB
EC-LAB for windows v11.62 (software)
Internet server v27.00 (firmware)
Command interpretor v12.03 (firmware)
Electrode material :
Initial state :
Electrolyte :
Comments :
Electrode surface area : 0.001 cm²
Characteristic mass : 0.001 g
Equivalent Weight : 0.000 g/eq.
Density : 0.000 g/cm3
Volume (V) : 0.001 cm³
Record Ece
Cycle Definition : Charge/Discharge alternance
Mode                Single sine
E (V)               0.0000
vs.                 Eoc
tE (h:m:s)          0:00:0.0000
record              0
dI                  0.000
unit dI             mA
dt (s)              0.000
fi                  100.000
unit fi             kHz
ff                  10.000
unit ff             mHz
Nd                  6
Points              per decade
spacing             Logarithmic
Va (mV)             5.0
pw                  0.10
Na                  2
corr                0
E range min (V)     -10.000
E range max (V)     10.000
I Range             Auto
Bandwidth           5
nc cycles           0
goto Ns'            0
nr cycles           0
inc. cycle          0

freq/Hz	Re(Z)/Ohm	-Im(Z)/Ohm	|Z|/Ohm	Phase(Z)/deg	time/s	<Ewe>/V	<I>/mA	Cs/µF	Cp/µF	cycle number	I Range	|Ewe|/V	|I|/A	Ns	(Q-Qo)/mA.h	<Ece>/V	|Ece|/V	Phase(Zce)/deg	|Zce|/Ohm	Re(Zce)/Ohm	-Im(Zce)/Ohm	Phase(Zwe-ce)/deg	|Zwe-ce|/Ohm	Re(Zwe-ce)/Ohm	-Im(Zwe-ce)/Ohm	Re(Y)/Ohm-1	Im(Y)/Ohm-1	|Y|/Ohm-1	Phase(Y)/deg	Re(C)/nF	Im(C)/nF	|C|/nF	Phase(C)/deg	Re(M)	Im(M)	|M|	Phase(M)/deg	Re(Permittivity)	Im(Permittivity)	|Permittivity|	Phase(Permittivity)/deg	Re(Resistivity)/Ohm.cm	Im(Resistivity)/Ohm.cm	|Resistivity|/Ohm.cm	Phase(Resistivity)/deg	Re(Conductivity)/mS/cm	Im(Conductivity)/mS/cm	|Conductivity|/mS/cm	Phase(Conductivity)/deg	Tan(Delta)	Loss Angle(Delta)/deg	dq/mA.h	Pwe/W	Pce/W	Pwe-ce/W	<Ewe-Ece>/V	Rwe/Ohm	Rce/Ohm	Rwe-ce/Ohm		Ewe-Ece/V
100004	1.28378	0.460789	1.36397	-19.7447	2.05355	0.278031	0.0318796	3.45384	0.394183	1	9	0.00495556	0.0036332	0	-4.35347e-06	-0.000169541	3.5242e-05	87.8813	0.0097	0.0003586	-0.00969337	-19.3555	1.36106	1.28413	0.451095	0.690051	0.247682	0.733156	19.7447	394.183	1098.21	1166.81	-70.2553	0.0000000E+000	0.0000000E+000	0.0000000E+000	70.2553	0.0000000E+000	0.0000000E+000	0.0000000E+000	-70.2553	0.0000000E+000	0.0000000E+000	0.0000000E+000	-19.7447	0.0000000E+000	0.0000000E+000	0.0000000E+000	19.7447	2.78604	70.2553	-4.35347e-06	8.86351e-06	-5.4049e-09	8.86892e-06	0.2782	8721.27	5.31817	8726.59
68132	1.39994	0.52739	1.49598	-20.6426	2.56252	0.278038	0.0211018	4.42932	0.550488	1	9	0.00505865	0.00338149	0	8.90869e-06	9.77758e-05	3.30171e-05	66.9185	0.00976408	0.00382791	-0.00898245	-20.2691	1.49643	1.40376	0.518407	0.625541	0.235656	0.668457	20.6426	550.488	1461.25	1561.5	-69.3574	0.0000000E+000	0.0000000E+000	0.0000000E+000	69.3574	0.0000000E+000	0.0000000E+000	0.0000000E+000	-69.3574	0.0000000E+000	0.0000000E+000	0.0000000E+000	-20.6426	0.0000000E+000	0.0000000E+000	0.0000000E+000	20.6426	2.65446	69.3574	1.32622e-05	5.86709e-06	2.06324e-09	5.86502e-06	0.27794	13176	4.63353	13171.4
46420.4	1.53439	0.596537	1.64627	-21.245	3.06956	0.278029	0.0267704	5.74744	0.754652	1	9	0.00505801	0.0030724	0	1.45583e-05	-0.000245917	1.30877e-05	49.6391	0.00425974	0.00275861	-0.00324584	-21.105	1.64767	1.53715	0.593291	0.566152	0.220107	0.607434	21.245	754.652	1941.09	2082.62	-68.755	0.0000000E+000	0.0000000E+000	0.0000000E+000	68.755	0.0000000E+000	0.0000000E+000	0.0000000E+000	-68.755	0.0000000E+000	0.0000000E+000	0.0000000E+000	-21.245	0.0000000E+000	0.0000000E+000	0.0000000E+000	21.245	2.57216	68.755	5.64957e-06	7.44294e-06	-6.58331e-09	7.44953e-06	0.278275	10385.7	9.18617	10394.9
31621.1	1.68012	0.682066	1.81329	-22.0953	3.57655	0.278033	0.0238615	7.37932	1.04408	1	9	0.00517982	0.00285659	0	1.54732e-05	-3.58827e-05	1.27451e-05	31.2343	0.00446166	0.00381496	-0.00231354	-21.9824	1.81596	1.68394	0.679752	0.510983	0.20744	0.551484	22.0953	1044.08	2571.87	2775.72	-67.9047	0.0000000E+000	0.0000000E+000	0.0000000E+000	67.9047	0.0000000E+000	0.0000000E+000	0.0000000E+000	-67.9047	0.0000000E+000	0.0000000E+000	0.0000000E+000	-22.0953	0.0000000E+000	0.0000000E+000	0.0000000E+000	22.0953	2.46328	67.9047	9.14973e-07	6.63428e-06	-8.56214e-10	6.63514e-06	0.278069	11652	1.50379	11653.5
21544.7	1.84701	0.761418	1.9978	-22.4036	3.95956	0.27803	0.0317677	9.70191	1.40929	1	9	0.00532233	0.0026641	0	1.25762e-05	-0.000188635	8.79502e-06	-39.6603	0.00330131	0.00254149	0.00210701	-22.4316	2.00095	1.84955	0.763525	0.462771	0.190774	0.500551	22.4036	1409.29	3418.58	3697.67	-67.5964	0.0000000E+000	0.0000000E+000	0.0000000E+000	67.5964	0.0000000E+000	0.0000000E+000	0.0000000E+000	-67.5964	0.0000000E+000	0.0000000E+000	0.0000000E+000	-22.4036	0.0000000E+000	0.0000000E+000	0.0000000E+000	22.4036	2.42575	67.5964	-2.89703e-06	8.83237e-06	-5.99251e-09	8.83836e-06	0.278218	8751.95	5.93795	8757.89
14678.6	2.0241	0.851443	2.19589	-22.8142	4.34255	0.278029	0.0251668	12.7344	1.91457	1	9	0.00517407	0.00235625	0	1.11183e-05	-0.000188635	1.24287e-05	27.1522	0.00527478	0.00469349	-0.00240718	-22.709	2.19929	2.02879	0.849036	0.41977	0.176577	0.455397	22.8142	1914.57	4551.42	4937.71	-67.1858	0.0000000E+000	0.0000000E+000	0.0000000E+000	67.1858	0.0000000E+000	0.0000000E+000	0.0000000E+000	-67.1858	0.0000000E+000	0.0000000E+000	0.0000000E+000	-22.8142	0.0000000E+000	0.0000000E+000	0.0000000E+000	22.8142	2.37726	67.1858	-1.4579e-06	6.99709e-06	-4.74734e-09	7.00183e-06	0.278218	11047.5	7.49541	11055
10002.2	2.21846	0.95373	2.41478	-23.2632	4.60155	0.278021	0.0209899	16.6839	2.60251	1	9	0.00503377	0.00208456	0	1.43339e-05	-0.000188635	7.00844e-06	13.3758	0.00336206	0.00327087	-0.000777767	-23.2156	2.41748	2.22173	0.952952	0.380448	0.163557	0.414116	23.2632	2602.51	6053.68	6589.39	-66.7368	0.0000000E+000	0.0000000E+000	0.0000000E+000	66.7368	0.0000000E+000	0.0000000E+000	0.0000000E+000	-66.7368	0.0000000E+000	0.0000000E+000	0.0000000E+000	-23.2632	0.0000000E+000	0.0000000E+000	0.0000000E+000	23.2632	2.32609	66.7368	3.21564e-06	5.83562e-06	-3.95943e-09	5.83958e-06	0.27821	13245.5	8.98697	13254.5
6810.42	2.43495	1.08445	2.66552	-24.0066	4.86053	0.278025	0.0273298	21.5496	3.56688	1	9	0.00485363	0.00182089	0	1.52199e-05	-5.49767e-05	0.000156741	-60.0197	0.0860793	0.043014	0.0745616	-25.0667	2.73562	2.47797	1.15901	0.342709	0.152631	0.375161	24.0066	3566.88	8008.87	8767.25	-65.9934	0.0000000E+000	0.0000000E+000	0.0000000E+000	65.9934	0.0000000E+000	0.0000000E+000	0.0000000E+000	-65.9934	0.0000000E+000	0.0000000E+000	0.0000000E+000	-24.0066	0.0000000E+000	0.0000000E+000	0.0000000E+000	24.0066	2.24534	65.9934	8.85949e-07	7.59835e-06	-1.5025e-09	7.59986e-06	0.27808	10173	2.01161	10175
4646	2.68544	1.22681	2.9524	-24.5526	5.12663	0.278	0.0131582	27.9231	4.82133	1	9	0.00472699	0.00160107	0	1.70583e-05	-1.67886e-05	1.34494e-05	121.309	0.00840027	-0.00436525	-0.00717699	-24.4609	2.94545	2.68108	1.21963	0.308082	0.140743	0.338708	24.5526	4821.33	10553.7	11602.9	-65.4474	0.0000000E+000	0.0000000E+000	0.0000000E+000	65.4474	0.0000000E+000	0.0000000E+000	0.0000000E+000	-65.4474	0.0000000E+000	0.0000000E+000	0.0000000E+000	-24.5526	0.0000000E+000	0.0000000E+000	0.0000000E+000	24.5526	2.18897	65.4474	1.83845e-06	3.65798e-06	-2.20907e-10	3.6582e-06	0.278017	21127.5	1.2759	21128.8
3163.08	2.95808	1.4013	3.2732	-25.3478	5.49861	0.277828	-0.0135813	35.9071	6.58104	1	9	0.00463575	0.00141627	0	1.66466e-05	2.13995e-05	1.1345e-05	148.321	0.00801047	-0.00681696	-0.00420673	-25.3323	3.26524	2.95126	1.39709	0.276098	0.130793	0.305511	25.3478	6581.04	13892.3	15372.2	-64.6522	0.0000000E+000	0.0000000E+000	0.0000000E+000	64.6522	0.0000000E+000	0.0000000E+000	0.0000000E+000	-64.6522	0.0000000E+000	0.0000000E+000	0.0000000E+000	-25.3478	0.0000000E+000	0.0000000E+000	0.0000000E+000	25.3478	2.11096	64.6522	-4.11747e-07	-3.77326e-06	-2.90634e-10	-3.77297e-06	0.277806	20456.6	1.57566	20455.1
2155.69	3.21055	1.6175	3.59499	-26.7393	6.19583	0.277961	-0.0137192	45.6446	9.24023	1	10	0.00474426	0.00131969	0	2.03857e-05	-0.000169541	4.56223e-06	-28.735	0.00345706	0.00303133	0.00166201	-26.7412	3.59845	3.21358	1.61916	0.248419	0.125155	0.278165	26.7393	9240.23	18340.8	20537	-63.2607	0.0000000E+000	0.0000000E+000	0.0000000E+000	63.2607	0.0000000E+000	0.0000000E+000	0.0000000E+000	-63.2607	0.0000000E+000	0.0000000E+000	0.0000000E+000	-26.7393	0.0000000E+000	0.0000000E+000	0.0000000E+000	26.7393	1.98488	63.2607	3.73914e-06	-3.81339e-06	2.32596e-09	-3.81572e-06	0.27813	20260.8	12.358	20273.1
1468.59	3.5207	1.88773	3.99486	-28.1993	6.64609	0.277963	-0.0137117	57.4089	12.8191	1	10	0.00467307	0.00116977	0	1.80618e-05	-0.000112259	6.5528e-06	-65.0337	0.00560178	0.00236443	0.00507833	-28.2474	3.99934	3.52307	1.89281	0.220611	0.118287	0.250322	28.1993	12819.1	23908.2	27128	-61.8007	0.0000000E+000	0.0000000E+000	0.0000000E+000	61.8007	0.0000000E+000	0.0000000E+000	0.0000000E+000	-61.8007	0.0000000E+000	0.0000000E+000	0.0000000E+000	-28.1993	0.0000000E+000	0.0000000E+000	0.0000000E+000	28.1993	1.86504	61.8007	-2.32389e-06	-3.81135e-06	1.53926e-09	-3.81289e-06	0.278075	20271.9	8.18708	20280.1
1000.32	3.83518	2.27425	4.45879	-30.6679	7.09781	0.277964	-0.0134507	69.9588	18.2006	1	10	0.00460837	0.00103355	0	1.56464e-05	-0.0003032	7.93145e-06	-5.59175	0.007674	0.00763749	0.000747751	-30.6261	4.46574	3.84281	2.275	0.192909	0.114394	0.224276	30.6679	18200.6	30692.5	35683.2	-59.3321	0.0000000E+000	0.0000000E+000	0.0000000E+000	59.3321	0.0000000E+000	0.0000000E+000	0.0000000E+000	-59.3321	0.0000000E+000	0.0000000E+000	0.0000000E+000	-30.6679	0.0000000E+000	0.0000000E+000	0.0000000E+000	30.6679	1.68635	59.3321	-2.41546e-06	-3.73881e-06	4.07825e-09	-3.74289e-06	0.278267	20665.4	22.5416	20687.9
681.09	4.20955	2.81533	5.06422	-33.7744	7.54757	0.27797	-0.0129249	83.0017	25.6519	1	10	0.00457761	0.000903913	0	1.40147e-05	-0.000131353	1.02186e-05	27.23	0.0113049	0.010052	-0.0051727	-33.6627	5.06971	4.2196	2.81015	0.164138	0.109775	0.197464	33.7744	25651.9	38355.3	46142.7	-56.2256	0.0000000E+000	0.0000000E+000	0.0000000E+000	56.2256	0.0000000E+000	0.0000000E+000	0.0000000E+000	-56.2256	0.0000000E+000	0.0000000E+000	0.0000000E+000	-33.7744	0.0000000E+000	0.0000000E+000	0.0000000E+000	33.7744	1.49523	56.2256	-1.63167e-06	-3.59274e-06	1.69773e-09	-3.59444e-06	0.278102	21506.5	10.1628	21516.7
463.961	4.64852	3.5645	5.85785	-37.4811	7.99928	0.277964	-0.0131226	96.2366	35.6337	1	10	0.00453857	0.000774784	0	1.29186e-05	2.30547e-06	1.3181e-05	62.7252	0.0170125	0.00779612	-0.015121	-37.3172	5.85486	4.65632	3.54938	0.135468	0.103878	0.170711	37.4811	35633.7	46470.5	58559.9	-52.5189	0.0000000E+000	0.0000000E+000	0.0000000E+000	52.5189	0.0000000E+000	0.0000000E+000	0.0000000E+000	-52.5189	0.0000000E+000	0.0000000E+000	0.0000000E+000	-37.4811	0.0000000E+000	0.0000000E+000	0.0000000E+000	37.4811	1.30412	52.5189	-1.09607e-06	-3.64759e-06	-3.02537e-11	-3.64756e-06	0.277961	21182.1	0.175688	21181.9
316.316	5.24676	4.60321	6.97983	-41.2619	8.44701	0.277951	-0.0136372	109.305	47.5412	1	10	0.00452444	0.000648216	0	1.0902e-05	-0.000188635	1.55829e-05	-67.4161	0.0240396	0.00923209	0.0221962	-41.3486	7.00142	5.25599	4.62541	0.107696	0.0944869	0.14327	41.2619	47541.2	54187.7	72086.6	-48.7381	0.0000000E+000	0.0000000E+000	0.0000000E+000	48.7381	0.0000000E+000	0.0000000E+000	0.0000000E+000	-48.7381	0.0000000E+000	0.0000000E+000	0.0000000E+000	-41.2619	0.0000000E+000	0.0000000E+000	0.0000000E+000	41.2619	1.1398	48.7381	-2.01663e-06	-3.79046e-06	2.57245e-09	-3.79303e-06	0.27814	20381.9	13.8324	20395.7
215.345	6.10195	6.00323	8.55994	-44.5328	8.89656	0.277964	-0.0121493	123.112	60.5522	1	10	0.00450265	0.000526014	0	9.46095e-06	0.00011687	9.86875e-06	-30.021	0.0187614	0.0162444	0.00938665	-44.5014	8.5781	6.11819	6.01262	0.0832774	0.0819302	0.116823	44.5328	60552.2	61547.9	86340.7	-45.4672	0.0000000E+000	0.0000000E+000	0.0000000E+000	45.4672	0.0000000E+000	0.0000000E+000	0.0000000E+000	-45.4672	0.0000000E+000	0.0000000E+000	0.0000000E+000	-44.5328	0.0000000E+000	0.0000000E+000	0.0000000E+000	44.5328	1.01644	45.4672	-1.44107e-06	-3.37707e-06	-1.41989e-09	-3.37565e-06	0.277847	22878.9	9.61944	22869.3
146.737	7.38349	7.81987	10.7548	-46.6441	9.34251	0.277944	-0.0137602	138.701	73.3284	1	10	0.00450069	0.000418481	0	7.88544e-06	9.77758e-05	1.02947e-05	28.947	0.0246003	0.0215269	-0.0119066	-46.5173	10.761	7.40502	7.80797	0.0638344	0.0676072	0.0929815	46.6441	73328.4	69236.3	100850	-43.3559	0.0000000E+000	0.0000000E+000	0.0000000E+000	43.3559	0.0000000E+000	0.0000000E+000	0.0000000E+000	-43.3559	0.0000000E+000	0.0000000E+000	0.0000000E+000	-46.6441	0.0000000E+000	0.0000000E+000	0.0000000E+000	46.6441	0.944196	43.3559	-1.5755e-06	-3.82457e-06	-1.34542e-09	-3.82323e-06	0.277846	20199.1	7.10569	20192
100.032	9.38959	9.9491	13.6802	-46.6572	10.0078	0.277945	-0.0145358	159.918	84.5819	1	10	0.00486159	0.000355373	0	5.29985e-06	-7.40708e-05	8.00949e-06	119.689	0.0225382	-0.0111631	-0.0195795	-46.6349	13.6583	9.37843	9.92952	0.0501718	0.0531614	0.0730981	46.6572	84581.9	79825.3	116302	-43.3428	0.0000000E+000	0.0000000E+000	0.0000000E+000	43.3428	0.0000000E+000	0.0000000E+000	0.0000000E+000	-43.3428	0.0000000E+000	0.0000000E+000	0.0000000E+000	-46.6572	0.0000000E+000	0.0000000E+000	0.0000000E+000	46.6572	0.943763	43.3428	-2.58559e-06	-4.04016e-06	1.07668e-09	-4.04124e-06	0.278019	19121.4	5.09574	19126.5
68.104	12.3319	12.1469	17.3096	-44.567	10.4705	0.277955	-0.0123656	192.39	94.7412	1	10	0.00486205	0.000280887	0	3.6596e-06	-7.40708e-05	1.51479e-05	58.6894	0.0539289	0.0280256	-0.0460748	-44.3931	17.2973	12.3599	12.1008	0.0411581	0.0405407	0.0577714	44.567	94741.2	96184.1	135008	-45.433	0.0000000E+000	0.0000000E+000	0.0000000E+000	45.433	0.0000000E+000	0.0000000E+000	0.0000000E+000	-45.433	0.0000000E+000	0.0000000E+000	0.0000000E+000	-44.567	0.0000000E+000	0.0000000E+000	0.0000000E+000	44.567	1.01523	45.433	-1.64025e-06	-3.43708e-06	9.15931e-10	-3.438e-06	0.278029	22478.1	5.99006	22484
46.4415	16.3987	14.076	21.6113	-40.6414	11.1466	0.277987	-0.00711764	243.465	103.283	1	11	0.00487166	0.000225422	0	1.24162e-06	-0.000188635	4.53101e-06	82.312	0.0201001	0.00268899	-0.0199195	-40.5966	21.6004	16.4014	14.056	0.0351112	0.030138	0.046272	40.6414	103283	120326	158574	-49.3586	0.0000000E+000	0.0000000E+000	0.0000000E+000	49.3586	0.0000000E+000	0.0000000E+000	0.0000000E+000	-49.3586	0.0000000E+000	0.0000000E+000	0.0000000E+000	-40.6414	0.0000000E+000	0.0000000E+000	0.0000000E+000	40.6414	1.16502	49.3586	-2.41798e-06	-1.97861e-06	1.34264e-09	-1.97996e-06	0.278176	39056.1	26.5025	39082.6
31.6296	21.175	14.9398	25.9148	-35.2046	11.5775	0.277984	-0.00722839	336.807	111.938	1	11	0.00486369	0.00018768	0	7.75651e-07	-1.67886e-05	7.21155e-06	-141.782	0.0384248	-0.0301889	0.0237716	-35.286	25.9039	21.1448	14.9636	0.0315301	0.0222459	0.0385879	35.2046	111938	158655	194168	-54.7954	0.0000000E+000	0.0000000E+000	0.0000000E+000	54.7954	0.0000000E+000	0.0000000E+000	0.0000000E+000	-54.7954	0.0000000E+000	0.0000000E+000	0.0000000E+000	-35.2046	0.0000000E+000	0.0000000E+000	0.0000000E+000	35.2046	1.41735	54.7954	-4.65972e-07	-2.00938e-06	1.21355e-10	-2.0095e-06	0.278001	38457.3	2.32259	38459.6
21.5517	26.0517	14.576	29.8521	-29.2271	11.9984	0.277982	-0.00731267	506.641	120.789	1	11	0.00486108	0.000162839	0	5.89193e-08	-9.31649e-05	7.0571e-06	89.7788	0.0433379	0.000167339	-0.0433376	-29.1543	29.8311	26.0518	14.5326	0.0292338	0.0163564	0.0334985	29.2271	120789	215886	247379	-60.7729	0.0000000E+000	0.0000000E+000	0.0000000E+000	60.7729	0.0000000E+000	0.0000000E+000	0.0000000E+000	-60.7729	0.0000000E+000	0.0000000E+000	0.0000000E+000	-29.2271	0.0000000E+000	0.0000000E+000	0.0000000E+000	29.2271	1.7873	60.7729	-7.16732e-07	-2.03279e-06	6.81284e-10	-2.03347e-06	0.278075	38013.7	12.7402	38026.5
14.6852	30.2645	13.4331	33.1117	-23.9343	12.4582	0.277999	-0.00654673	806.801	132.786	1	11	0.00485974	0.000146768	0	-1.84192e-07	-7.40708e-05	1.02852e-05	98.2889	0.0700779	-0.0101027	-0.0693458	-23.8316	33.0744	30.2544	13.3637	0.0276039	0.0122521	0.0302008	23.9343	132786	299165	327311	-66.0657	0.0000000E+000	0.0000000E+000	0.0000000E+000	66.0657	0.0000000E+000	0.0000000E+000	0.0000000E+000	-66.0657	0.0000000E+000	0.0000000E+000	0.0000000E+000	-23.9343	0.0000000E+000	0.0000000E+000	0.0000000E+000	23.9343	2.25298	66.0657	-2.43112e-07	-1.81999e-06	4.84921e-10	-1.82047e-06	0.278073	42463.8	11.3142	42475.1
10.0032	33.684	11.7078	35.6607	-19.1664	12.9088	0.277983	-0.00666643	1358.95	146.48	1	11	0.00485327	0.000136096	0	-2.0819e-06	0.00011687	9.26331e-06	-16.9818	0.0680646	0.0650968	0.0198795	-19.1622	35.7287	33.7491	11.7277	0.0264877	0.00920655	0.0280421	19.1664	146480	421430	446160	-70.8336	0.0000000E+000	0.0000000E+000	0.0000000E+000	70.8336	0.0000000E+000	0.0000000E+000	0.0000000E+000	-70.8336	0.0000000E+000	0.0000000E+000	0.0000000E+000	-19.1664	0.0000000E+000	0.0000000E+000	0.0000000E+000	19.1664	2.87705	70.8336	-1.89771e-06	-1.85315e-06	-7.79105e-10	-1.85237e-06	0.277866	41698.9	17.5311	41681.4
6.81719	36.3777	10.0667	37.7449	-15.4682	13.2485	0.277987	-0.00700801	2319.14	164.963	1	11	0.00485227	0.000128554	0	-1.57593e-06	-0.000150447	6.0887e-06	77.3597	0.0473629	0.0103644	-0.046215	-15.3964	37.7426	36.3881	10.0205	0.025534	0.00706595	0.0264936	15.4682	164962	596120	618524	-74.5318	0.0000000E+000	0.0000000E+000	0.0000000E+000	74.5318	0.0000000E+000	0.0000000E+000	0.0000000E+000	-74.5318	0.0000000E+000	0.0000000E+000	0.0000000E+000	-15.4682	0.0000000E+000	0.0000000E+000	0.0000000E+000	15.4682	3.61367	74.5318	5.05971e-07	-1.94814e-06	1.05433e-09	-1.94919e-06	0.278137	39667	21.4679	39688.5
4.63925	38.4746	8.48507	39.3991	-12.4368	13.7325	0.277987	-0.00636252	4043.12	187.523	1	11	0.00484895	0.000123073	0	-2.4143e-06	4.04936e-05	6.76921e-06	26.3344	0.0550018	0.0492937	-0.0243993	-12.3867	39.442	38.5239	8.46067	0.0247857	0.00546615	0.0253813	12.4368	187523	850302	870734	-77.5632	0.0000000E+000	0.0000000E+000	0.0000000E+000	77.5632	0.0000000E+000	0.0000000E+000	0.0000000E+000	-77.5632	0.0000000E+000	0.0000000E+000	0.0000000E+000	-12.4368	0.0000000E+000	0.0000000E+000	0.0000000E+000	12.4368	4.53439	77.5632	-8.38375e-07	-1.7687e-06	-2.57641e-10	-1.76844e-06	0.277947	43691.4	6.3644	43685
3.1604	40.103	7.25216	40.7534	-10.2505	14.4255	0.277978	-0.00620105	6944.02	219.896	1	11	0.00485333	0.00011909	0	-5.23056e-06	0.000155058	3.82274e-06	96.8597	0.0320996	-0.00383394	-0.0318698	-10.2074	40.744	40.0991	7.22029	0.0241462	0.00436656	0.0245378	10.2505	219896	1.21598e+06	1.2357e+06	-79.7495	0.0000000E+000	0.0000000E+000	0.0000000E+000	79.7495	0.0000000E+000	0.0000000E+000	0.0000000E+000	-79.7495	0.0000000E+000	0.0000000E+000	0.0000000E+000	-10.2505	0.0000000E+000	0.0000000E+000	0.0000000E+000	10.2505	5.5298	79.7495	-2.81625e-06	-1.72376e-06	-9.61522e-10	-1.7228e-06	0.277823	44827.6	25.0051	44802.6
2.15577	41.5874	6.13231	42.0371	-8.38815	15.429	0.277984	-0.00547818	12039.1	256.199	1	11	0.00486173	0.000115653	0	-7.93019e-06	-7.40708e-05	6.1023e-06	110.101	0.0527637	-0.0181335	-0.0495498	-8.32491	42.012	41.5693	6.08276	0.023534	0.00347023	0.0237885	8.38815	256199	1.73746e+06	1.75625e+06	-81.6118	0.0000000E+000	0.0000000E+000	0.0000000E+000	81.6118	0.0000000E+000	0.0000000E+000	0.0000000E+000	-81.6118	0.0000000E+000	0.0000000E+000	0.0000000E+000	-8.38815	0.0000000E+000	0.0000000E+000	0.0000000E+000	8.38815	6.78169	81.6118	-2.69963e-06	-1.52285e-06	4.05773e-10	-1.52325e-06	0.278058	50743.9	13.5211	50757.4
1.46631	42.6362	5.35712	42.9714	-7.16153	17.6185	0.277994	-0.0054781	20261.1	314.895	1	12	0.00485799	0.000113052	0	-9.79035e-06	0.000193246	2.04978e-06	-7.11569	0.0181314	0.0179917	0.00224599	-7.16151	42.9896	42.6542	5.35937	0.0230897	0.00290116	0.0232713	7.16153	314895	2.50618e+06	2.52589e+06	-82.8385	0.0000000E+000	0.0000000E+000	0.0000000E+000	82.8385	0.0000000E+000	0.0000000E+000	0.0000000E+000	-82.8385	0.0000000E+000	0.0000000E+000	0.0000000E+000	-7.16153	0.0000000E+000	0.0000000E+000	0.0000000E+000	7.16153	7.95879	82.8385	-1.86016e-06	-1.52288e-06	-1.05862e-09	-1.52182e-06	0.277801	50746.5	35.2761	50711.2
1.00006	43.5799	4.74495	43.8375	-6.21384	19.7466	0.277988	-0.00535063	33539.8	392.946	1	12	0.0048599	0.000110862	0	-9.34979e-06	0.000193246	2.33958e-06	34.394	0.0211036	0.0174141	-0.011921	-6.1959	43.8535	43.5973	4.73303	0.0226775	0.00246911	0.0228115	6.21384	392946	3.60901e+06	3.63034e+06	-83.7862	0.0000000E+000	0.0000000E+000	0.0000000E+000	83.7862	0.0000000E+000	0.0000000E+000	0.0000000E+000	-83.7862	0.0000000E+000	0.0000000E+000	0.0000000E+000	-6.21384	0.0000000E+000	0.0000000E+000	0.0000000E+000	6.21384	9.18449	83.7862	4.40563e-07	-1.48741e-06	-1.03399e-09	-1.48638e-06	0.277795	51954.3	36.1165	51918.2
0.681362	44.4831	4.36289	44.6965	-5.60164	22.8579	0.277991	-0.00492818	53538.6	510.116	1	12	0.0048656	0.000108858	0	-1.03429e-05	-0.000265011	9.70444e-06	118.914	0.0891473	-0.0431027	-0.0780346	-5.50738	44.6461	44.44	4.28486	0.0222663	0.00218387	0.0223731	5.60164	510116	5.20103e+06	5.22598e+06	-84.3984	0.0000000E+000	0.0000000E+000	0.0000000E+000	84.3984	0.0000000E+000	0.0000000E+000	0.0000000E+000	-84.3984	0.0000000E+000	0.0000000E+000	0.0000000E+000	-5.60164	0.0000000E+000	0.0000000E+000	0.0000000E+000	5.60164	10.1958	84.3984	-9.93119e-07	-1.36999e-06	1.30602e-09	-1.3713e-06	0.278256	56408.5	53.7747	56462.3
0.464091	45.218	4.08042	45.4017	-5.15634	27.4144	0.277989	-0.00429032	84045.2	678.857	1	12	0.0048609	0.000107064	0	-1.60819e-05	9.77758e-05	4.30319e-06	-3.068	0.0401926	0.040135	0.00215115	-5.1545	45.4419	45.2581	4.08257	0.0219365	0.00197952	0.0220256	5.15634	678857	7.52288e+06	7.55345e+06	-84.8437	0.0000000E+000	0.0000000E+000	0.0000000E+000	84.8437	0.0000000E+000	0.0000000E+000	0.0000000E+000	-84.8437	0.0000000E+000	0.0000000E+000	0.0000000E+000	-5.15634	0.0000000E+000	0.0000000E+000	0.0000000E+000	5.15634	11.0817	84.8437	-5.73899e-06	-1.19266e-06	-4.1949e-10	-1.19224e-06	0.277892	64794.5	22.7899	64771.7
0.316193	45.9005	4.07608	46.0812	-5.07469	34.0889	0.277984	-0.00381166	123488	966.192	1	12	0.00485791	0.000105421	0	-2.9877e-05	2.30547e-06	2.18077e-06	49.2398	0.0206864	0.013506	-0.0156689	-5.05381	46.0932	45.914	4.06041	0.0216158	0.00191953	0.0217008	5.07469	966192	1.08802e+07	1.09231e+07	-84.9253	0.0000000E+000	0.0000000E+000	0.0000000E+000	84.9253	0.0000000E+000	0.0000000E+000	0.0000000E+000	-84.9253	0.0000000E+000	0.0000000E+000	0.0000000E+000	-5.07469	0.0000000E+000	0.0000000E+000	0.0000000E+000	5.07469	11.261	84.9253	-1.37951e-05	-1.05958e-06	-8.78767e-12	-1.05957e-06	0.277982	72929.9	0.604847	72929.3
0.215268	46.6202	4.23411	46.8121	-5.18944	43.8823	0.277984	-0.00339756	174614	1428.52	1	12	0.00485964	0.000103812	0	-5.29202e-05	-0.000169541	1.94725e-06	-16.5693	0.0187575	0.0179786	0.00534917	-5.19397	46.8304	46.6382	4.23946	0.0212745	0.00193217	0.021362	5.18944	1.42852e+06	1.57289e+07	1.57937e+07	-84.8106	0.0000000E+000	0.0000000E+000	0.0000000E+000	84.8106	0.0000000E+000	0.0000000E+000	0.0000000E+000	-84.8106	0.0000000E+000	0.0000000E+000	0.0000000E+000	-5.18944	0.0000000E+000	0.0000000E+000	0.0000000E+000	5.18944	11.0106	84.8106	-2.30431e-05	-9.44467e-07	5.76026e-10	-9.45043e-07	0.278154	81818.8	49.9009	81868.7
0.146929	47.4317	4.60962	47.6551	-5.55082	58.2196	0.277993	-0.00305642	234989	2198.66	1	12	0.00486164	0.000102017	0	-8.21541e-05	0.000155058	3.38375e-06	4.88823	0.0331685	0.0330479	-0.00282636	-5.5436	47.6877	47.4647	4.60679	0.0208857	0.00202976	0.0209841	5.55082	2.19866e+06	2.26236e+07	2.27302e+07	-84.4492	0.0000000E+000	0.0000000E+000	0.0000000E+000	84.4492	0.0000000E+000	0.0000000E+000	0.0000000E+000	-84.4492	0.0000000E+000	0.0000000E+000	0.0000000E+000	-5.55082	0.0000000E+000	0.0000000E+000	0.0000000E+000	5.55082	10.2897	84.4492	-2.92339e-05	-8.49663e-07	-4.73923e-10	-8.49189e-07	0.277837	90953.5	50.7318	90902.8
0.0999041	48.3488	5.36577	48.6456	-6.3328	79.2977	0.277989	-0.00308657	296896	3612.29	1	12	0.00485833	9.9872e-05	0	-0.000109382	-0.000112259	2.0681e-06	22.202	0.0207075	0.0191722	-0.00782481	-6.32116	48.6638	48.3679	5.35795	0.0204314	0.00226749	0.0205568	6.3328	3.61228e+06	3.25488e+07	3.27486e+07	-83.6672	0.0000000E+000	0.0000000E+000	0.0000000E+000	83.6672	0.0000000E+000	0.0000000E+000	0.0000000E+000	-83.6672	0.0000000E+000	0.0000000E+000	0.0000000E+000	-6.3328	0.0000000E+000	0.0000000E+000	0.0000000E+000	6.3328	9.01058	83.6672	-2.72277e-05	-8.58034e-07	3.46495e-10	-8.5838e-07	0.278102	90064.2	36.3701	90100.6
0.0680626	49.3514	6.46603	49.7732	-7.46438	110.224	0.277994	-0.00280201	361638	6103.2	1	12	0.00486237	9.76905e-05	0	-0.000124553	-0.000188635	9.63088e-07	-68.5467	0.00985857	0.0036057	0.00917553	-7.47431	49.778	49.355	6.47521	0.0199209	0.00261003	0.0200911	7.46438	6.1032e+06	4.65822e+07	4.69803e+07	-82.5356	0.0000000E+000	0.0000000E+000	0.0000000E+000	82.5356	0.0000000E+000	0.0000000E+000	0.0000000E+000	-82.5356	0.0000000E+000	0.0000000E+000	0.0000000E+000	-7.46438	0.0000000E+000	0.0000000E+000	0.0000000E+000	7.46438	7.63242	82.5356	-1.51716e-05	-7.78942e-07	5.28558e-10	-7.7947e-07	0.278182	99212.2	67.3213	99279.5
0.0464052	50.386	7.85562	50.9947	-8.86157	155.575	0.277999	-0.00208357	436589	10360.6	1	12	0.00486141	9.53317e-05	0	-0.000106608	-0.000188635	1.25055e-06	-88.7224	0.0131178	0.000292476	0.0131146	-8.87608	50.997	50.3863	7.86873	0.0193758	0.00302086	0.0196099	8.86157	1.03606e+07	6.64528e+07	6.72556e+07	-81.1384	0.0000000E+000	0.0000000E+000	0.0000000E+000	81.1384	0.0000000E+000	0.0000000E+000	0.0000000E+000	-81.1384	0.0000000E+000	0.0000000E+000	0.0000000E+000	-8.86157	0.0000000E+000	0.0000000E+000	0.0000000E+000	8.86157	6.41401	81.1384	1.79456e-05	-5.79231e-07	3.93035e-10	-5.79624e-07	0.278187	133424	90.5345	133515
0.0315922	51.7813	9.49897	52.6454	-10.395	222.181	0.277995	-0.00133863	530351	17266.2	1	12	0.00485942	9.23049e-05	0	-5.20288e-05	-3.58827e-05	3.31389e-06	-8.43105	0.0359015	0.0355136	0.00526385	-10.3937	52.6813	51.8168	9.50424	0.0186833	0.00342733	0.018995	10.395	1.72662e+07	9.41224e+07	9.5693e+07	-79.605	0.0000000E+000	0.0000000E+000	0.0000000E+000	79.605	0.0000000E+000	0.0000000E+000	0.0000000E+000	-79.605	0.0000000E+000	0.0000000E+000	0.0000000E+000	-10.395	0.0000000E+000	0.0000000E+000	0.0000000E+000	10.395	5.45125	79.605	5.45789e-05	-3.72133e-07	4.80336e-11	-3.72181e-07	0.278031	207671	26.8055	207698
0.0215268	53.6272	11.7691	54.9034	-12.378	319.919	0.277992	-0.000356151	628201	28865.9	1	12	0.00485731	8.84701e-05	0	1.9601e-05	7.86817e-05	7.18999e-07	35.7151	0.00812703	0.00659857	-0.00474419	-12.3717	54.9088	53.6338	11.7643	0.0177904	0.00390431	0.0182138	12.378	2.88659e+07	1.31531e+08	1.34661e+08	-77.622	0.0000000E+000	0.0000000E+000	0.0000000E+000	77.622	0.0000000E+000	0.0000000E+000	0.0000000E+000	-77.622	0.0000000E+000	0.0000000E+000	0.0000000E+000	-12.378	0.0000000E+000	0.0000000E+000	0.0000000E+000	12.378	4.55661	77.622	7.16298e-05	-9.90071e-08	-2.80226e-11	-9.89791e-08	0.277913	780545	220.922	780324
0.0146812	55.7303	15.1241	57.746	-15.1833	463.22	0.277988	0.000337108	716785	49168.3	1	12	0.0048589	8.41426e-05	0	5.23763e-05	7.86817e-05	1.09091e-06	29.552	0.0129651	0.0112784	-0.00639454	-15.1742	57.7552	55.7416	15.1177	0.0167127	0.00453551	0.0173172	15.1833	4.91683e+07	1.81178e+08	1.87732e+08	-74.8167	0.0000000E+000	0.0000000E+000	0.0000000E+000	74.8167	0.0000000E+000	0.0000000E+000	0.0000000E+000	-74.8167	0.0000000E+000	0.0000000E+000	0.0000000E+000	-15.1833	0.0000000E+000	0.0000000E+000	0.0000000E+000	15.1833	3.68486	74.8167	3.27753e-05	9.37118e-08	2.65242e-11	9.36853e-08	0.277909	824625	233.402	824392
0.0100092	57.8644	19.4537	61.047	-18.5823	673.4	0.277987	0.00046779	817374	83003.2	1	12	0.00485949	7.96025e-05	0	-3.95433e-05	0.000231434	1.90078e-06	26.4198	0.0238784	0.0213845	-0.0106246	-18.5665	61.0639	57.8858	19.443	0.0155268	0.00522003	0.0163808	18.5823	8.30032e+07	2.46891e+08	2.6047e+08	-71.4177	0.0000000E+000	0.0000000E+000	0.0000000E+000	71.4177	0.0000000E+000	0.0000000E+000	0.0000000E+000	-71.4177	0.0000000E+000	0.0000000E+000	0.0000000E+000	-18.5823	0.0000000E+000	0.0000000E+000	0.0000000E+000	18.5823	2.97447	71.4177	-9.19196e-05	1.30039e-07	1.08263e-10	1.29931e-07	0.277755	594256	494.74	593761