File: txt/19503_R316_UA716_SOC00_C05.mpt
EC-Lab ASCII FILE
Nb header lines : 65

Potentio Electrochemical Impedance Spectroscopy

Run on channel : 5 (SN 65912)
User :
CE vs. WE compliance from -10 V to 10 V
Electrode connection : standard
Potential control : Ewe
Ewe ctrl range : min = -10.00 V, max = 10.00 V
Safety Limits :
	Do not start on E overload
Acquisition started on : 12/04/2025 15:15:00.169
Technique started on : 12/04/2025 15:15:02.224
Loaded Setting File :  C:\Users\Celltest\OneDrive - store-dot.com\Documents\EC-Lab\Data\@Biologic Test Protocols\anode half cell EIS SOC00.mps
Saved on :
	File : 19503_R316_UA716_SOC00_C05.mpr
	Directory : C:\Users\Celltest\OneDrive - store-dot.com\Documents\EC-Lab\Data\Charmaine\
	Host : 169.254.61.224
Device : VMP-3e (SN .003165)
Address : USB
EC-LAB for windows v11.62 (software)
Internet server v27.00 (firmware)
Command interpretor v12.03 (firmware)
Electrode material :
Initial state :
Electrolyte :
Comments :
Electrode surface area : 0.001 cm²
Characteristic mass : 0.001 g
Equivalent Weight : 0.000 g/eq.
Density : 0.000 g/cm3
Volume (V) : 0.001 cm³
Record Ece
Cycle Definition : Charge/Discharge alternance
Mode                Single sine
E (V)               0.0000
vs.                 Eoc
tE (h:m:s)          0:00:0.0000
record              0
dI                  0.000
unit dI             mA
dt (s)              0.000
fi                  100.000
unit fi             kHz
ff                  10.000
unit ff             mHz
Nd                  6
Points              per decade
spacing             Logarithmic
Va (mV)             5.0
pw                  0.10
Na                  2
corr                0
E range min (V)     -10.000
E range max (V)     10.000
I Range             Auto
Bandwidth           5
nc cycles           0
goto Ns'            0
nr cycles           0
inc. cycle          0

freq/Hz	Re(Z)/Ohm	-Im(Z)/Ohm	|Z|/Ohm	Phase(Z)/deg	time/s	<Ewe>/V	<I>/mA	Cs/µF	Cp/µF	cycle number	I Range	|Ewe|/V	|I|/A	Ns	(Q-Qo)/mA.h	<Ece>/V	|Ece|/V	Phase(Zce)/deg	|Zce|/Ohm	Re(Zce)/Ohm	-Im(Zce)/Ohm	Phase(Zwe-ce)/deg	|Zwe-ce|/Ohm	Re(Zwe-ce)/Ohm	-Im(Zwe-ce)/Ohm	Re(Y)/Ohm-1	Im(Y)/Ohm-1	|Y|/Ohm-1	Phase(Y)/deg	Re(C)/nF	Im(C)/nF	|C|/nF	Phase(C)/deg	Re(M)	Im(M)	|M|	Phase(M)/deg	Re(Permittivity)	Im(Permittivity)	|Permittivity|	Phase(Permittivity)/deg	Re(Resistivity)/Ohm.cm	Im(Resistivity)/Ohm.cm	|Resistivity|/Ohm.cm	Phase(Resistivity)/deg	Re(Conductivity)/mS/cm	Im(Conductivity)/mS/cm	|Conductivity|/mS/cm	Phase(Conductivity)/deg	Tan(Delta)	Loss Angle(Delta)/deg	dq/mA.h	Pwe/W	Pce/W	Pwe-ce/W	<Ewe-Ece>/V	Rwe/Ohm	Rce/Ohm	Rwe-ce/Ohm		Ewe-Ece/V
100004	1.32769	0.487266	1.41428	-20.1533	2.05454	0.219593	0.0231417	3.26616	0.387705	1	9	0.00493846	0.00349186	0	-4.31923e-06	-8.57495e-05	3.5381e-05	61.0194	0.0101324	0.0049093	-0.00886366	-19.7482	1.41587	1.3326	0.478403	0.663783	0.243611	0.707075	20.1533	387.705	1056.4	1125.3	-69.8467	0.0000000E+000	0.0000000E+000	0.0000000E+000	69.8467	0.0000000E+000	0.0000000E+000	0.0000000E+000	-69.8467	0.0000000E+000	0.0000000E+000	0.0000000E+000	-20.1533	0.0000000E+000	0.0000000E+000	0.0000000E+000	20.1533	2.72477	69.8467	-4.31923e-06	5.08174e-06	-1.98439e-09	5.08373e-06	0.219679	9489.08	3.70542	9492.78
68132	1.46143	0.579791	1.57224	-21.6397	2.56154	0.219551	0.0194177	4.029	0.547904	1	9	0.00504888	0.00321127	0	-1.03704e-05	-0.000181206	2.97815e-05	63.8302	0.00927406	0.00409016	-0.00832338	-21.3029	1.573	1.46552	0.571468	0.591209	0.23455	0.636036	21.6397	547.904	1381.05	1485.77	-68.3603	0.0000000E+000	0.0000000E+000	0.0000000E+000	68.3603	0.0000000E+000	0.0000000E+000	0.0000000E+000	-68.3603	0.0000000E+000	0.0000000E+000	0.0000000E+000	-21.6397	0.0000000E+000	0.0000000E+000	0.0000000E+000	21.6397	2.52061	68.3603	-6.05119e-06	4.26317e-06	-3.51859e-09	4.26669e-06	0.219733	11306.8	9.332	11316.1
46420.4	1.60912	0.665049	1.74114	-22.4553	3.06856	0.219541	0.0208328	5.15535	0.752143	1	9	0.00502557	0.00288637	0	-1.44182e-05	-0.000123932	1.55575e-05	35.3285	0.00538998	0.00439741	-0.00311683	-22.3055	1.74401	1.61352	0.661932	0.53079	0.219376	0.574338	22.4553	752.143	1819.85	1969.15	-67.5447	0.0000000E+000	0.0000000E+000	0.0000000E+000	67.5447	0.0000000E+000	0.0000000E+000	0.0000000E+000	-67.5447	0.0000000E+000	0.0000000E+000	0.0000000E+000	-22.4553	0.0000000E+000	0.0000000E+000	0.0000000E+000	22.4553	2.41955	67.5447	-4.04774e-06	4.57365e-06	-2.58185e-09	4.57624e-06	0.219665	10538.3	5.9489	10544.2
31621.1	1.78095	0.762415	1.93728	-23.1755	3.45154	0.219547	0.0202742	6.60163	1.02246	1	9	0.00541242	0.00279382	0	-4.58394e-06	-0.000104841	7.85458e-06	6.1003	0.00281141	0.00279549	-0.000298767	-23.1349	1.93974	1.78375	0.762116	0.474532	0.203144	0.516187	23.1755	1022.46	2388.41	2598.06	-66.8245	0.0000000E+000	0.0000000E+000	0.0000000E+000	66.8245	0.0000000E+000	0.0000000E+000	0.0000000E+000	-66.8245	0.0000000E+000	0.0000000E+000	0.0000000E+000	-23.1755	0.0000000E+000	0.0000000E+000	0.0000000E+000	23.1755	2.33594	66.8245	9.83422e-06	4.45113e-06	-2.12556e-09	4.45326e-06	0.219652	10828.9	5.17115	10834.1
21544.7	1.96754	0.856936	2.14605	-23.5349	3.83457	0.219546	0.0147999	8.62048	1.37451	1	9	0.0054235	0.0025272	0	-7.39823e-06	-0.000333935	5.38068e-05	-21.5486	0.0212911	0.019803	0.00782001	-23.5154	2.16733	1.98734	0.864756	0.427211	0.186066	0.465971	23.5349	1374.51	3155.89	3442.23	-66.4651	0.0000000E+000	0.0000000E+000	0.0000000E+000	66.4651	0.0000000E+000	0.0000000E+000	0.0000000E+000	-66.4651	0.0000000E+000	0.0000000E+000	0.0000000E+000	-23.5349	0.0000000E+000	0.0000000E+000	0.0000000E+000	23.5349	2.29602	66.4651	-2.81429e-06	3.24926e-06	-4.94222e-09	3.2542e-06	0.21988	14834.2	22.5633	14856.8
14678.6	2.17084	0.965218	2.37575	-23.9713	4.21753	0.219544	0.0220244	11.2334	1.85421	1	9	0.00530283	0.00223206	0	-1.07518e-05	-0.000181206	7.60639e-06	-68.7877	0.00340779	0.00123302	0.00317689	-24.0292	2.37817	2.17207	0.968394	0.384615	0.171011	0.420919	23.9713	1854.21	4170.25	4563.88	-66.0287	0.0000000E+000	0.0000000E+000	0.0000000E+000	66.0287	0.0000000E+000	0.0000000E+000	0.0000000E+000	-66.0287	0.0000000E+000	0.0000000E+000	0.0000000E+000	-23.9713	0.0000000E+000	0.0000000E+000	0.0000000E+000	23.9713	2.24907	66.0287	-3.35354e-06	4.83532e-06	-3.99095e-09	4.83931e-06	0.219725	9968.18	8.22748	9976.41
10002.2	2.39631	1.08725	2.63143	-24.4047	4.60252	0.219535	0.0108897	14.635	2.49845	1	9	0.00521011	0.00197996	0	-8.10306e-06	-9.38465e-06	1.2117e-05	-64.941	0.00611984	0.00259206	0.00554379	-24.4912	2.63608	2.3989	1.0928	0.346067	0.157017	0.380022	24.4047	2498.45	5506.6	6046.89	-65.5953	0.0000000E+000	0.0000000E+000	0.0000000E+000	65.5953	0.0000000E+000	0.0000000E+000	0.0000000E+000	-65.5953	0.0000000E+000	0.0000000E+000	0.0000000E+000	-24.4047	0.0000000E+000	0.0000000E+000	0.0000000E+000	24.4047	2.20401	65.5953	2.64872e-06	2.39067e-06	-1.02196e-10	2.39077e-06	0.219544	20159.8	0.86179	20160.7
6810.42	2.63145	1.22	2.9005	-24.8735	4.98753	0.21953	0.0123793	19.1552	3.38891	1	9	0.00502922	0.00173391	0	-1.06327e-05	0.000162436	5.43192e-05	-27.5255	0.0313275	0.0277814	0.0144778	-24.9019	2.9318	2.65923	1.23448	0.312787	0.145015	0.344768	24.8735	3388.91	7309.61	8056.99	-65.1265	0.0000000E+000	0.0000000E+000	0.0000000E+000	65.1265	0.0000000E+000	0.0000000E+000	0.0000000E+000	-65.1265	0.0000000E+000	0.0000000E+000	0.0000000E+000	-24.8735	0.0000000E+000	0.0000000E+000	0.0000000E+000	24.8735	2.15692	65.1265	-2.52965e-06	2.71764e-06	2.01085e-09	2.71562e-06	0.219368	17733.7	13.1216	17720.5
4646	2.91172	1.39312	3.22784	-25.5689	5.25364	0.219531	0.00906497	24.5896	4.58044	1	9	0.00509322	0.00157791	0	-9.53974e-06	2.87978e-05	7.16442e-06	-83.5356	0.00454046	0.000511191	0.0045116	-25.6372	3.23025	2.91223	1.39763	0.279465	0.133711	0.309805	25.5689	4580.44	9573.44	10612.8	-64.4311	0.0000000E+000	0.0000000E+000	0.0000000E+000	64.4311	0.0000000E+000	0.0000000E+000	0.0000000E+000	-64.4311	0.0000000E+000	0.0000000E+000	0.0000000E+000	-25.5689	0.0000000E+000	0.0000000E+000	0.0000000E+000	25.5689	2.09007	64.4311	1.09297e-06	1.99004e-06	2.61051e-10	1.98978e-06	0.219502	24217.5	3.17682	24214.4
3163.08	3.21285	1.60311	3.59059	-26.5178	5.62666	0.21942	-0.0360324	31.3867	6.25664	1	9	0.00498579	0.00138857	0	-1.3183e-05	0.000181527	6.88966e-06	-73.6398	0.00496169	0.00139758	0.00476079	-26.5757	3.59397	3.21425	1.60787	0.249206	0.124346	0.278506	26.5178	6256.64	12539.1	14013.4	-63.4822	0.0000000E+000	0.0000000E+000	0.0000000E+000	63.4822	0.0000000E+000	0.0000000E+000	0.0000000E+000	-63.4822	0.0000000E+000	0.0000000E+000	0.0000000E+000	-26.5178	0.0000000E+000	0.0000000E+000	0.0000000E+000	26.5178	2.00413	63.4822	-3.6433e-06	-7.90625e-06	-6.54088e-09	-7.89971e-06	0.219239	6089.52	5.03789	6084.48
2155.69	3.55458	1.84776	4.00615	-27.4666	6.32286	0.219466	-0.014825	39.9565	8.50011	1	10	0.0050167	0.00125225	0	-1.75437e-05	9.70657e-06	1.53781e-05	-55.6166	0.0122804	0.00693509	0.0101347	-27.5492	4.01699	3.56152	1.8579	0.221479	0.115131	0.249616	27.4666	8500.11	16351.9	18429.2	-62.5334	0.0000000E+000	0.0000000E+000	0.0000000E+000	62.5334	0.0000000E+000	0.0000000E+000	0.0000000E+000	-62.5334	0.0000000E+000	0.0000000E+000	0.0000000E+000	-27.4666	0.0000000E+000	0.0000000E+000	0.0000000E+000	27.4666	1.92372	62.5334	-4.36061e-06	-3.25359e-06	-1.439e-10	-3.25344e-06	0.219456	14803.8	0.654742	14803.1
1468.59	3.93258	2.15943	4.48646	-28.7717	6.77412	0.219466	-0.0141846	50.1858	11.6266	1	10	0.00490472	0.00109323	0	-1.89015e-05	-4.75671e-05	7.12408e-06	12.5667	0.00651656	0.00636045	-0.00141785	-28.7168	4.49135	3.93894	2.15801	0.195376	0.107283	0.222893	28.7717	11626.6	21173.4	24155.5	-61.2283	0.0000000E+000	0.0000000E+000	0.0000000E+000	61.2283	0.0000000E+000	0.0000000E+000	0.0000000E+000	-61.2283	0.0000000E+000	0.0000000E+000	0.0000000E+000	-28.7717	0.0000000E+000	0.0000000E+000	0.0000000E+000	28.7717	1.82112	61.2283	-1.35788e-06	-3.11304e-06	6.7472e-10	-3.11372e-06	0.219514	15472.2	3.35343	15475.5
1000.32	4.35141	2.5502	5.04364	-30.373	7.22482	0.219474	-0.0142032	62.3888	15.9502	1	10	0.00480941	0.00095356	0	-1.98107e-05	-0.000143023	9.30057e-06	-79.0584	0.00975353	0.0018513	0.00957622	-30.4561	5.05008	4.35326	2.55978	0.171057	0.10025	0.198269	30.373	15950.2	27215.9	31545.5	-59.627	0.0000000E+000	0.0000000E+000	0.0000000E+000	59.627	0.0000000E+000	0.0000000E+000	0.0000000E+000	-59.627	0.0000000E+000	0.0000000E+000	0.0000000E+000	-30.373	0.0000000E+000	0.0000000E+000	0.0000000E+000	30.373	1.7063	59.627	-9.09189e-07	-3.11723e-06	2.03139e-09	-3.11926e-06	0.219617	15452.4	10.0698	15462.5
681.09	4.83371	3.06356	5.72278	-32.3661	7.67459	0.219483	-0.0142665	76.2762	21.8589	1	10	0.00474328	0.000828842	0	-2.15324e-05	-6.66583e-05	3.88576e-06	45.8038	0.00468818	0.00326821	-0.00336122	-32.3202	5.72374	4.83698	3.0602	0.147593	0.0935434	0.17474	32.3661	21858.9	34489.2	40832.8	-57.6339	0.0000000E+000	0.0000000E+000	0.0000000E+000	57.6339	0.0000000E+000	0.0000000E+000	0.0000000E+000	-57.6339	0.0000000E+000	0.0000000E+000	0.0000000E+000	-32.3661	0.0000000E+000	0.0000000E+000	0.0000000E+000	32.3661	1.57781	57.6339	-1.72172e-06	-3.13126e-06	9.50982e-10	-3.13221e-06	0.21955	15384.5	4.67236	15389.2
463.961	5.37899	3.74356	6.55345	-34.8364	8.12629	0.219474	-0.0142256	91.6334	29.9009	1	10	0.00470057	0.000717266	0	-2.37111e-05	-0.000219388	5.2856e-06	14.0896	0.00736909	0.0071474	-0.00179392	-34.7879	6.5583	5.38613	3.74177	0.125245	0.0871655	0.152591	34.8364	29900.9	42963.4	52344.2	-55.1636	0.0000000E+000	0.0000000E+000	0.0000000E+000	55.1636	0.0000000E+000	0.0000000E+000	0.0000000E+000	-55.1636	0.0000000E+000	0.0000000E+000	0.0000000E+000	-34.8364	0.0000000E+000	0.0000000E+000	0.0000000E+000	34.8364	1.43686	55.1636	-2.17871e-06	-3.12214e-06	3.12092e-09	-3.12526e-06	0.219693	15428.1	15.4221	15443.6
316.316	6.03822	4.67742	7.63796	-37.7627	8.57407	0.219497	-0.0138123	107.57	40.3414	1	10	0.00467403	0.000611948	0	-2.49235e-05	-4.75671e-05	7.74265e-06	-88.4095	0.0126525	0.000351186	0.0126476	-37.836	7.64599	6.03857	4.69007	0.103503	0.0801774	0.130925	37.7627	40341.4	52077.9	65875.2	-52.2373	0.0000000E+000	0.0000000E+000	0.0000000E+000	52.2373	0.0000000E+000	0.0000000E+000	0.0000000E+000	-52.2373	0.0000000E+000	0.0000000E+000	0.0000000E+000	-37.7627	0.0000000E+000	0.0000000E+000	0.0000000E+000	37.7627	1.29093	52.2373	-1.21233e-06	-3.03175e-06	6.5701e-10	-3.0324e-06	0.219544	15891.4	3.44383	15894.9
215.345	6.92199	5.92162	9.10931	-40.5463	9.02456	0.219495	-0.0139128	124.809	52.7419	1	10	0.00466152	0.000511732	0	-2.65769e-05	8.60714e-05	6.8436e-06	4.01303	0.0133734	0.0133406	-0.000935916	-40.4873	9.11884	6.93533	5.92068	0.083418	0.0713624	0.109778	40.5463	52741.9	61651.9	81133.6	-49.4537	0.0000000E+000	0.0000000E+000	0.0000000E+000	49.4537	0.0000000E+000	0.0000000E+000	0.0000000E+000	-49.4537	0.0000000E+000	0.0000000E+000	0.0000000E+000	-40.5463	0.0000000E+000	0.0000000E+000	0.0000000E+000	40.5463	1.16894	49.4537	-1.65343e-06	-3.05379e-06	-1.1975e-09	-3.05259e-06	0.219409	15776.5	6.18649	15770.3
146.737	8.17271	7.57134	11.1408	-42.8125	9.47052	0.219493	-0.0144713	143.254	66.1631	1	10	0.0046534	0.000417688	0	-2.88863e-05	0.000105163	8.5463e-06	-85.1016	0.020461	0.00174715	0.0203862	-42.8833	11.156	8.17446	7.59172	0.0658461	0.0610009	0.0897598	42.8125	66163.1	71418.3	97355.7	-47.1875	0.0000000E+000	0.0000000E+000	0.0000000E+000	47.1875	0.0000000E+000	0.0000000E+000	0.0000000E+000	-47.1875	0.0000000E+000	0.0000000E+000	0.0000000E+000	-42.8125	0.0000000E+000	0.0000000E+000	0.0000000E+000	42.8125	1.07943	47.1875	-2.30941e-06	-3.17636e-06	-1.52184e-09	-3.17484e-06	0.219388	15167.5	7.26697	15160.2
100.032	10.0038	9.58577	13.8551	-43.7775	9.9218	0.219489	-0.013708	165.979	79.4492	1	10	0.00463124	0.000334263	0	-3.01346e-05	-0.000123932	6.18772e-06	63.4316	0.0185115	0.00827958	-0.0165567	-43.7043	13.8496	10.0121	9.56921	0.0521132	0.0499354	0.0721756	43.7775	79449.2	82914.1	114834	-46.2225	0.0000000E+000	0.0000000E+000	0.0000000E+000	46.2225	0.0000000E+000	0.0000000E+000	0.0000000E+000	-46.2225	0.0000000E+000	0.0000000E+000	0.0000000E+000	-43.7775	0.0000000E+000	0.0000000E+000	0.0000000E+000	43.7775	1.04361	46.2225	-1.24823e-06	-3.00876e-06	1.69886e-09	-3.01046e-06	0.219613	16011.7	9.04083	16020.8
68.104	12.7969	11.7872	17.3982	-42.6483	10.3844	0.2195	-0.0129782	198.26	91.0015	1	10	0.00463392	0.000266344	0	-3.14819e-05	-9.38465e-06	8.53203e-06	17.0406	0.0320339	0.0306275	-0.0093875	-42.5573	17.4144	12.8275	11.7778	0.0422759	0.0389405	0.0574771	42.6483	91001.5	98796.3	134320	-47.3517	0.0000000E+000	0.0000000E+000	0.0000000E+000	47.3517	0.0000000E+000	0.0000000E+000	0.0000000E+000	-47.3517	0.0000000E+000	0.0000000E+000	0.0000000E+000	-42.6483	0.0000000E+000	0.0000000E+000	0.0000000E+000	42.6483	1.08566	47.3517	-1.34732e-06	-2.84872e-06	1.21796e-10	-2.84884e-06	0.219509	16912.9	0.723106	16913.6
46.4415	16.6175	13.7713	21.5822	-39.6493	11.0607	0.219505	-0.008001	248.851	101.321	1	11	0.00464652	0.000215294	0	-3.32744e-05	0.000105163	4.05069e-06	18.8177	0.0188147	0.017809	-0.00606883	-39.6068	21.592	16.6353	13.7652	0.035676	0.0295655	0.0463346	39.6493	101321	122261	158788	-50.3507	0.0000000E+000	0.0000000E+000	0.0000000E+000	50.3507	0.0000000E+000	0.0000000E+000	0.0000000E+000	-50.3507	0.0000000E+000	0.0000000E+000	0.0000000E+000	-39.6493	0.0000000E+000	0.0000000E+000	0.0000000E+000	39.6493	1.20668	50.3507	-1.79254e-06	-1.75625e-06	-8.41406e-10	-1.75541e-06	0.219399	27434.7	13.1437	27421.5
31.6296	21.3652	14.8159	25.9997	-34.7398	11.4905	0.21949	-0.00830742	339.624	110.286	1	11	0.00464201	0.000178541	0	-3.44207e-05	9.70657e-06	8.06325e-06	56.4199	0.045162	0.0249792	-0.037625	-34.6403	25.9988	21.3902	14.7783	0.0316061	0.0219176	0.038462	34.7398	110286	159037	193535	-55.2602	0.0000000E+000	0.0000000E+000	0.0000000E+000	55.2602	0.0000000E+000	0.0000000E+000	0.0000000E+000	-55.2602	0.0000000E+000	0.0000000E+000	0.0000000E+000	-34.7398	0.0000000E+000	0.0000000E+000	0.0000000E+000	34.7398	1.44204	55.2602	-1.14625e-06	-1.82339e-06	-8.06365e-11	-1.82331e-06	0.21948	26420.9	1.16842	26419.8
21.5517	26.3373	14.5577	30.0929	-28.9313	11.9115	0.219493	-0.00841502	507.276	118.715	1	11	0.00463419	0.000153996	0	-3.53245e-05	2.87978e-05	6.72112e-06	101.945	0.0436447	-0.00903357	-0.0426996	-28.8684	30.0643	26.3282	14.515	0.0290833	0.0160756	0.0332305	28.9313	118715	214774	245400	-61.0687	0.0000000E+000	0.0000000E+000	0.0000000E+000	61.0687	0.0000000E+000	0.0000000E+000	0.0000000E+000	-61.0687	0.0000000E+000	0.0000000E+000	0.0000000E+000	-28.9313	0.0000000E+000	0.0000000E+000	0.0000000E+000	28.9313	1.80916	61.0687	-9.03856e-07	-1.84704e-06	-2.42334e-10	-1.8468e-06	0.219464	26083.5	3.42219	26080.1
14.6852	30.7465	13.2819	33.4926	-23.3634	12.3721	0.219507	-0.00782005	815.985	128.322	1	11	0.00463254	0.000138315	0	-3.59017e-05	-0.000123932	9.33568e-06	68.718	0.0674958	0.0244981	-0.0628929	-23.248	33.4903	30.771	13.219	0.0274093	0.0118402	0.0298573	23.3634	128322	297056	323588	-66.6366	0.0000000E+000	0.0000000E+000	0.0000000E+000	66.6366	0.0000000E+000	0.0000000E+000	0.0000000E+000	-66.6366	0.0000000E+000	0.0000000E+000	0.0000000E+000	-23.3634	0.0000000E+000	0.0000000E+000	0.0000000E+000	23.3634	2.31492	66.6366	-5.77151e-07	-1.71656e-06	9.69154e-10	-1.71753e-06	0.219631	28069.8	15.848	28085.7
10.0032	34.1757	11.2544	35.9811	-18.2272	12.8228	0.219498	-0.00773591	1413.71	138.31	1	11	0.00462303	0.000128485	0	-3.64842e-05	6.69802e-05	9.75426e-06	-46.2259	0.0759176	0.0525211	0.0548181	-18.2838	36.0482	34.2283	11.3092	0.0263978	0.00869304	0.0277923	18.2272	138310	420000	442187	-71.7728	0.0000000E+000	0.0000000E+000	0.0000000E+000	71.7728	0.0000000E+000	0.0000000E+000	0.0000000E+000	-71.7728	0.0000000E+000	0.0000000E+000	0.0000000E+000	-18.2272	0.0000000E+000	0.0000000E+000	0.0000000E+000	18.2272	3.03666	71.7728	-5.82559e-07	-1.69802e-06	-5.18153e-10	-1.6975e-06	0.219431	28373.9	8.65835	28365.3
6.81719	36.7425	9.13122	37.8602	-13.9564	13.1625	0.219501	-0.00776309	2556.74	148.723	1	11	0.00462532	0.000122169	0	-3.69976e-05	-0.000123932	1.35309e-05	-68.2363	0.110756	0.0410661	0.102861	-14.0922	37.9249	36.7836	9.23408	0.0256333	0.00637036	0.026413	13.9564	148723	598437	616641	-76.0436	0.0000000E+000	0.0000000E+000	0.0000000E+000	76.0436	0.0000000E+000	0.0000000E+000	0.0000000E+000	-76.0436	0.0000000E+000	0.0000000E+000	0.0000000E+000	-13.9564	0.0000000E+000	0.0000000E+000	0.0000000E+000	13.9564	4.02384	76.0436	-5.13343e-07	-1.70401e-06	9.62095e-10	-1.70497e-06	0.219625	28275	15.9643	28291
4.63925	38.5197	7.36084	39.2167	-10.8184	13.6464	0.219499	-0.00748496	4660.63	164.194	1	11	0.00462983	0.000118058	0	-3.93281e-05	0.000200619	6.70453e-06	1.83234	0.0567903	0.0567613	-0.00181586	-10.8002	39.2721	38.5765	7.35902	0.0250461	0.00478613	0.0254993	10.8184	164194	859237	874784	-79.1816	0.0000000E+000	0.0000000E+000	0.0000000E+000	79.1816	0.0000000E+000	0.0000000E+000	0.0000000E+000	-79.1816	0.0000000E+000	0.0000000E+000	0.0000000E+000	-10.8184	0.0000000E+000	0.0000000E+000	0.0000000E+000	10.8184	5.23306	79.1816	-2.33051e-06	-1.64295e-06	-1.50162e-09	-1.64144e-06	0.219299	29325.4	26.8029	29298.6
3.1604	39.7039	5.91552	40.1422	-8.47421	14.3394	0.219495	-0.00742446	8513.05	184.871	1	11	0.00462771	0.000115283	0	-4.08439e-05	-0.000104841	8.06781e-06	-34.9681	0.0699827	0.0573489	0.0401085	-8.5187	40.2048	39.7613	5.95563	0.0246395	0.00367106	0.0249114	8.47421	184871	1.24082e+06	1.25452e+06	-81.5258	0.0000000E+000	0.0000000E+000	0.0000000E+000	81.5258	0.0000000E+000	0.0000000E+000	0.0000000E+000	-81.5258	0.0000000E+000	0.0000000E+000	0.0000000E+000	-8.47421	0.0000000E+000	0.0000000E+000	0.0000000E+000	8.47421	6.71182	81.5258	-1.51583e-06	-1.62963e-06	7.78386e-10	-1.63041e-06	0.2196	29563.8	14.121	29577.9
2.15577	40.569	4.88156	40.8616	-6.86126	15.3431	0.219512	-0.00650064	15123.8	215.847	1	11	0.00462864	0.000113276	0	-4.08792e-05	-0.000104841	1.46354e-06	-35.3046	0.0129201	0.010544	0.00746681	-6.86989	40.873	40.5795	4.88903	0.0242976	0.00292366	0.0244728	6.86126	215847	1.79383e+06	1.80677e+06	-83.1387	0.0000000E+000	0.0000000E+000	0.0000000E+000	83.1387	0.0000000E+000	0.0000000E+000	0.0000000E+000	-83.1387	0.0000000E+000	0.0000000E+000	0.0000000E+000	-6.86126	0.0000000E+000	0.0000000E+000	0.0000000E+000	6.86126	8.31066	83.1387	-3.53239e-08	-1.42697e-06	6.81532e-10	-1.42765e-06	0.219616	33767.7	16.1277	33783.8
1.46631	41.2875	4.04984	41.4856	-5.60216	17.5306	0.219524	-0.00576039	26801.3	255.41	1	12	0.00463157	0.000111643	0	-4.20252e-05	0.000105163	2.05471e-06	86.8071	0.0184044	0.00102509	-0.0183758	-5.57676	41.4849	41.2885	4.03147	0.0239896	0.00235311	0.0241047	5.60216	255410	2.60386e+06	2.61636e+06	-84.3978	0.0000000E+000	0.0000000E+000	0.0000000E+000	84.3978	0.0000000E+000	0.0000000E+000	0.0000000E+000	-84.3978	0.0000000E+000	0.0000000E+000	0.0000000E+000	-5.60216	0.0000000E+000	0.0000000E+000	0.0000000E+000	5.60216	10.1948	84.3978	-1.14591e-06	-1.26454e-06	-6.05778e-10	-1.26394e-06	0.219419	38109.2	18.2562	38090.9
1.00006	41.9366	3.47625	42.0805	-4.73858	19.6607	0.219504	-0.0057611	45780.6	312.423	1	12	0.00462955	0.000110017	0	-4.61085e-05	-0.000143023	2.70817e-06	-48.7904	0.024616	0.0162174	0.0185187	-4.76188	42.0982	41.9528	3.49477	0.0236828	0.00196314	0.023764	4.73858	312423	3.76899e+06	3.78192e+06	-85.2614	0.0000000E+000	0.0000000E+000	0.0000000E+000	85.2614	0.0000000E+000	0.0000000E+000	0.0000000E+000	-85.2614	0.0000000E+000	0.0000000E+000	0.0000000E+000	-4.73858	0.0000000E+000	0.0000000E+000	0.0000000E+000	4.73858	12.0637	85.2614	-4.08331e-06	-1.26459e-06	8.2397e-10	-1.26541e-06	0.219647	38101.1	24.8257	38125.9
0.681362	42.472	3.14482	42.5882	-4.23472	22.7729	0.219502	-0.00531784	74275.5	405.004	1	12	0.00463203	0.000108763	0	-5.4533e-05	0.000162436	1.6284e-06	-16.9974	0.014972	0.014318	0.00437673	-4.23917	42.6028	42.4863	3.1492	0.0234166	0.00173387	0.0234807	4.23472	405004	5.46972e+06	5.48469e+06	-85.7653	0.0000000E+000	0.0000000E+000	0.0000000E+000	85.7653	0.0000000E+000	0.0000000E+000	0.0000000E+000	-85.7653	0.0000000E+000	0.0000000E+000	0.0000000E+000	-4.23472	0.0000000E+000	0.0000000E+000	0.0000000E+000	4.23472	13.5054	85.7653	-8.42451e-06	-1.16728e-06	-8.6381e-10	-1.16641e-06	0.21934	41276.6	30.5456	41246.1
0.464091	43.0044	2.95193	43.1056	-3.92678	27.3294	0.219495	-0.00529353	116174	544.826	1	12	0.00463528	0.000107533	0	-6.80937e-05	-0.000123932	1.40904e-06	25.7925	0.0131033	0.0117979	-0.00570143	-3.91814	43.1169	43.0162	2.94623	0.0231444	0.00158869	0.0231989	3.92678	544825	7.93713e+06	7.95581e+06	-86.0732	0.0000000E+000	0.0000000E+000	0.0000000E+000	86.0732	0.0000000E+000	0.0000000E+000	0.0000000E+000	-86.0732	0.0000000E+000	0.0000000E+000	0.0000000E+000	-3.92678	0.0000000E+000	0.0000000E+000	0.0000000E+000	3.92678	14.5682	86.0732	-1.35607e-05	-1.16191e-06	6.56038e-10	-1.16256e-06	0.219619	41464.8	23.412	41488.2
0.316193	43.5412	2.9108	43.6383	-3.82463	34.004	0.219494	-0.00515289	172924	769.386	1	12	0.00463373	0.000106185	0	-8.41851e-05	-0.000200297	1.93645e-06	-7.46709	0.0182366	0.0180819	0.00236996	-3.82615	43.6565	43.5592	2.91317	0.0228646	0.00152854	0.0229156	3.82463	769385	1.15088e+07	1.15345e+07	-86.1754	0.0000000E+000	0.0000000E+000	0.0000000E+000	86.1754	0.0000000E+000	0.0000000E+000	0.0000000E+000	-86.1754	0.0000000E+000	0.0000000E+000	0.0000000E+000	-3.82463	0.0000000E+000	0.0000000E+000	0.0000000E+000	3.82463	14.9585	86.1754	-1.60913e-05	-1.13103e-06	1.03211e-09	-1.13206e-06	0.219695	42596.4	38.8708	42635.2
0.215268	44.0578	3.13115	44.169	-4.06513	43.7974	0.219498	-0.00493634	236122	1186.62	1	12	0.00463069	0.00010484	0	-9.80818e-05	8.60714e-05	3.15355e-06	-84.5123	0.0300795	0.00287655	0.0299416	-4.1036	44.174	44.0607	3.1611	0.0225834	0.00160498	0.0226403	4.06513	1.18662e+06	1.66967e+07	1.67388e+07	-85.9349	0.0000000E+000	0.0000000E+000	0.0000000E+000	85.9349	0.0000000E+000	0.0000000E+000	0.0000000E+000	-85.9349	0.0000000E+000	0.0000000E+000	0.0000000E+000	-4.06513	0.0000000E+000	0.0000000E+000	0.0000000E+000	4.06513	14.0708	85.9349	-1.38968e-05	-1.08352e-06	-4.24877e-10	-1.08309e-06	0.219412	44465.8	17.4363	44448.4
0.146929	44.5864	3.51685	44.7248	-4.51	58.1358	0.219503	-0.0045491	308006	1904.45	1	12	0.00463452	0.000103623	0	-0.000104317	-8.57495e-05	5.73758e-06	40.8134	0.0553697	0.0419062	-0.0361895	-4.4596	44.7638	44.6283	3.48066	0.0222897	0.00175815	0.0223589	4.51	1.90445e+06	2.41445e+07	2.42195e+07	-85.49	0.0000000E+000	0.0000000E+000	0.0000000E+000	85.49	0.0000000E+000	0.0000000E+000	0.0000000E+000	-85.49	0.0000000E+000	0.0000000E+000	0.0000000E+000	-4.51	0.0000000E+000	0.0000000E+000	0.0000000E+000	4.51	12.6779	85.49	-6.23566e-06	-9.98543e-07	3.90083e-10	-9.98933e-07	0.219589	48252	18.8498	48270.8
0.0999041	45.1194	4.05912	45.3016	-5.14073	79.2119	0.219497	-0.00403569	392468	3150.96	1	12	0.00463447	0.000102303	0	-0.000101169	4.7889e-05	1.69254e-06	9.47924	0.0165445	0.0163185	-0.00272471	-5.13545	45.3176	45.1357	4.0564	0.0219855	0.00197791	0.0220743	5.14073	3.15096e+06	3.50246e+07	3.5166e+07	-84.8593	0.0000000E+000	0.0000000E+000	0.0000000E+000	84.8593	0.0000000E+000	0.0000000E+000	0.0000000E+000	-84.8593	0.0000000E+000	0.0000000E+000	0.0000000E+000	-5.14073	0.0000000E+000	0.0000000E+000	0.0000000E+000	5.14073	11.1155	84.8593	3.14855e-06	-8.85824e-07	-1.93265e-10	-8.85631e-07	0.21945	54389	11.8664	54377.2
0.0680626	45.8241	4.82247	46.0771	-6.00762	110.139	0.2195	-0.00314956	484889	5311.41	1	12	0.00462937	0.00010047	0	-9.20009e-05	0.000276984	1.97905e-06	-44.9229	0.0196979	0.0139473	0.0139098	-6.023	46.0925	45.838	4.83638	0.0215835	0.00227143	0.0217027	6.00762	5.31141e+06	5.04701e+07	5.07488e+07	-83.9924	0.0000000E+000	0.0000000E+000	0.0000000E+000	83.9924	0.0000000E+000	0.0000000E+000	0.0000000E+000	-83.9924	0.0000000E+000	0.0000000E+000	0.0000000E+000	-6.00762	0.0000000E+000	0.0000000E+000	0.0000000E+000	6.00762	9.5022	83.9924	9.16804e-06	-6.91329e-07	-8.72375e-10	-6.90456e-07	0.219223	69692.5	87.9437	69604.5
0.0464052	46.8105	5.84313	47.1738	-7.11515	155.491	0.219502	-0.00178186	586959	9005.28	1	12	0.00463251	9.82008e-05	0	-8.71144e-05	6.69802e-05	2.73112e-06	3.84503	0.0278116	0.027749	-0.00186499	-7.10873	47.2011	46.8383	5.84126	0.021035	0.00262569	0.0211982	7.11515	9.00528e+06	7.21432e+07	7.2703e+07	-82.8849	0.0000000E+000	0.0000000E+000	0.0000000E+000	82.8849	0.0000000E+000	0.0000000E+000	0.0000000E+000	-82.8849	0.0000000E+000	0.0000000E+000	0.0000000E+000	-7.11515	0.0000000E+000	0.0000000E+000	0.0000000E+000	7.11515	8.01121	82.8849	4.88655e-06	-3.91122e-07	-1.19349e-10	-3.91002e-07	0.219435	123187	37.5901	123150
0.0315922	47.9082	7.42736	48.4805	-8.81259	222.096	0.219498	-0.000895772	678275	15919.9	1	12	0.0046318	9.55395e-05	0	-0.000118367	0.000200619	2.30722e-06	28.1987	0.0241493	0.0212832	-0.0114113	-8.79541	48.4998	47.9295	7.41595	0.0203833	0.00316009	0.0206268	8.81259	1.59199e+07	1.02687e+08	1.03914e+08	-81.1874	0.0000000E+000	0.0000000E+000	0.0000000E+000	81.1874	0.0000000E+000	0.0000000E+000	0.0000000E+000	-81.1874	0.0000000E+000	0.0000000E+000	0.0000000E+000	-8.81259	0.0000000E+000	0.0000000E+000	0.0000000E+000	8.81259	6.45023	81.1874	-3.12527e-05	-1.9662e-07	-1.79709e-10	-1.96441e-07	0.219298	245038	223.962	244814
0.0215268	49.0764	9.41239	49.9709	-10.8569	319.835	0.219501	-0.000302764	785491	27868.1	1	12	0.00463183	9.26906e-05	0	-0.000219759	0.000162436	2.56751e-06	56.5257	0.0276998	0.0152782	-0.0231053	-10.8276	49.9816	49.0917	9.38929	0.0196535	0.00376934	0.0200116	10.8569	2.78681e+07	1.45305e+08	1.47953e+08	-79.1431	0.0000000E+000	0.0000000E+000	0.0000000E+000	79.1431	0.0000000E+000	0.0000000E+000	0.0000000E+000	-79.1431	0.0000000E+000	0.0000000E+000	0.0000000E+000	-10.8569	0.0000000E+000	0.0000000E+000	0.0000000E+000	10.8569	5.21402	79.1431	-0.000101392	-6.64568e-08	-4.91798e-11	-6.64076e-08	0.219338	724990	536.512	724454
0.0146812	50.6584	11.8692	52.0303	-13.1865	463.137	0.2195	-0.000205344	913350	47530.2	1	12	0.00463318	8.90478e-05	0	-0.000402576	4.7889e-05	1.65167e-06	3.18804	0.0185481	0.0185194	-0.00103152	-13.1807	52.0481	50.6769	11.8682	0.0187128	0.0043844	0.0192196	13.1865	4.75302e+07	2.02861e+08	2.08355e+08	-76.8135	0.0000000E+000	0.0000000E+000	0.0000000E+000	76.8135	0.0000000E+000	0.0000000E+000	0.0000000E+000	-76.8135	0.0000000E+000	0.0000000E+000	0.0000000E+000	-13.1865	0.0000000E+000	0.0000000E+000	0.0000000E+000	13.1865	4.26804	76.8135	-0.000182817	-4.5073e-08	-9.83373e-12	-4.50631e-08	0.219452	1.06894e+06	233.213	1.0687e+06
0.0100092	53.0782	15.2601	55.2283	-16.0401	673.319	0.219499	-0.000184301	1.04199e+06	79552.8	1	12	0.00463087	8.38495e-05	0	-0.000607767	0.000181527	1.5364e-06	56.5652	0.0183233	0.0100959	-0.015291	-16.0219	55.2338	53.0883	15.2448	0.0174017	0.00500303	0.0181066	16.0401	7.95528e+07	2.76703e+08	2.87912e+08	-73.9599	0.0000000E+000	0.0000000E+000	0.0000000E+000	73.9599	0.0000000E+000	0.0000000E+000	0.0000000E+000	-73.9599	0.0000000E+000	0.0000000E+000	0.0000000E+000	-16.0401	0.0000000E+000	0.0000000E+000	0.0000000E+000	16.0401	3.47824	73.9599	-0.000205191	-4.04541e-08	-3.34558e-11	-4.04206e-08	0.219318	1.19098e+06	984.949	1.19e+06