File: txt/19505_R316_UA716_SOC00_C07.mpt
EC-Lab ASCII FILE
Nb header lines : 65

Potentio Electrochemical Impedance Spectroscopy

Run on channel : 7 (SN 66126)
User :
CE vs. WE compliance from -10 V to 10 V
Electrode connection : standard
Potential control : Ewe
Ewe ctrl range : min = -10.00 V, max = 10.00 V
Safety Limits :
	Do not start on E overload
Acquisition started on : 12/04/2025 15:15:11.338
Technique started on : 12/04/2025 15:15:13.393
Loaded Setting File :  NONE
Saved on :
	File : 19505_R316_UA716_SOC00_C07.mpr
	Directory : C:\Users\Celltest\OneDrive - store-dot.com\Documents\EC-Lab\Data\Charmaine\
	Host : 169.254.61.224
Device : VMP-3e (SN .003165)
Address : USB
EC-LAB for windows v11.62 (software)
Internet server v27.00 (firmware)
Command interpretor v12.03 (firmware)
Electrode material :
Initial state :
Electrolyte :
Comments :
Electrode surface area : 0.001 cm²
Characteristic mass : 0.001 g
Equivalent Weight : 0.000 g/eq.
Density : 0.000 g/cm3
Volume (V) : 0.001 cm³
Record Ece
Cycle Definition : Charge/Discharge alternance
Mode                Single sine
E (V)               0.0000
vs.                 Eoc
tE (h:m:s)          0:00:0.0000
record              0
dI                  0.000
unit dI             mA
dt (s)              0.000
fi                  100.000
unit fi             kHz
ff                  10.000
unit ff             mHz
Nd                  6
Points              per decade
spacing             Logarithmic
Va (mV)             5.0
pw                  0.10
Na                  2
corr                0
E range min (V)     -10.000
E range max (V)     10.000
I Range             Auto
Bandwidth           5
nc cycles           0
goto Ns'            0
nr cycles           0
inc. cycle          0

freq/Hz	Re(Z)/Ohm	-Im(Z)/Ohm	|Z|/Ohm	Phase(Z)/deg	time/s	<Ewe>/V	<I>/mA	Cs/µF	Cp/µF	cycle number	I Range	|Ewe|/V	|I|/A	Ns	(Q-Qo)/mA.h	<Ece>/V	|Ece|/V	Phase(Zce)/deg	|Zce|/Ohm	Re(Zce)/Ohm	-Im(Zce)/Ohm	Phase(Zwe-ce)/deg	|Zwe-ce|/Ohm	Re(Zwe-ce)/Ohm	-Im(Zwe-ce)/Ohm	Re(Y)/Ohm-1	Im(Y)/Ohm-1	|Y|/Ohm-1	Phase(Y)/deg	Re(C)/nF	Im(C)/nF	|C|/nF	Phase(C)/deg	Re(M)	Im(M)	|M|	Phase(M)/deg	Re(Permittivity)	Im(Permittivity)	|Permittivity|	Phase(Permittivity)/deg	Re(Resistivity)/Ohm.cm	Im(Resistivity)/Ohm.cm	|Resistivity|/Ohm.cm	Phase(Resistivity)/deg	Re(Conductivity)/mS/cm	Im(Conductivity)/mS/cm	|Conductivity|/mS/cm	Phase(Conductivity)/deg	Tan(Delta)	Loss Angle(Delta)/deg	dq/mA.h	Pwe/W	Pce/W	Pwe-ce/W	<Ewe-Ece>/V	Rwe/Ohm	Rce/Ohm	Rwe-ce/Ohm		Ewe-Ece/V
100004	1.47678	0.447902	1.54321	-16.8723	2.05456	0.217961	0.0771977	3.55321	0.29932	1	9	0.00492242	0.00318972	0	1.20748e-05	-0.000285059	4.11085e-05	68.9785	0.0128878	0.00462309	-0.0120301	-16.3954	1.5442	1.48141	0.435872	0.620104	0.188075	0.647998	16.8723	299.32	986.89	1031.28	-73.1277	0.0000000E+000	0.0000000E+000	0.0000000E+000	73.1277	0.0000000E+000	0.0000000E+000	0.0000000E+000	-73.1277	0.0000000E+000	0.0000000E+000	0.0000000E+000	-16.8723	0.0000000E+000	0.0000000E+000	0.0000000E+000	16.8723	3.29711	73.1277	1.20748e-05	1.68261e-05	-2.20059e-08	1.68481e-05	0.218246	2823.41	3.69259	2827.1
68132	1.58711	0.519823	1.67007	-18.135	2.43756	0.217976	0.0758945	4.4938	0.435364	1	9	0.00542781	0.00325004	0	1.91246e-05	-0.000246909	4.22587e-05	56.2667	0.0130025	0.00722066	-0.0108133	-17.7063	1.67362	1.59433	0.50901	0.569032	0.186374	0.598776	18.135	435.365	1329.25	1398.73	-71.865	0.0000000E+000	0.0000000E+000	0.0000000E+000	71.865	0.0000000E+000	0.0000000E+000	0.0000000E+000	-71.865	0.0000000E+000	0.0000000E+000	0.0000000E+000	-18.135	0.0000000E+000	0.0000000E+000	0.0000000E+000	18.135	3.05318	71.865	7.04977e-06	1.65432e-05	-1.8739e-08	1.65619e-05	0.218223	2872.09	3.25332	2875.35
46420.4	1.71839	0.584491	1.81507	-18.7852	2.82053	0.217964	0.0794691	5.86589	0.60828	1	9	0.00537809	0.00296302	0	3.64396e-05	-5.61544e-05	1.44896e-05	68.0573	0.00489014	0.00182734	-0.00453589	-18.6311	1.81535	1.72021	0.579955	0.521596	0.177415	0.550943	18.7852	608.28	1788.32	1888.94	-71.2148	0.0000000E+000	0.0000000E+000	0.0000000E+000	71.2148	0.0000000E+000	0.0000000E+000	0.0000000E+000	-71.2148	0.0000000E+000	0.0000000E+000	0.0000000E+000	-18.7852	0.0000000E+000	0.0000000E+000	0.0000000E+000	18.7852	2.93997	71.2148	1.7315e-05	1.73214e-05	-4.46254e-09	1.73258e-05	0.21802	2742.75	0.706619	2743.45
31621.1	1.85979	0.657724	1.97267	-19.4764	3.20355	0.217988	0.0732134	7.65242	0.850707	1	9	0.00537179	0.00272311	0	4.09821e-05	0.0001346	1.23831e-05	9.96505	0.00454742	0.00447881	-0.000786919	-19.4116	1.97663	1.86427	0.656937	0.477921	0.16902	0.506928	19.4764	850.707	2405.46	2551.46	-70.5236	0.0000000E+000	0.0000000E+000	0.0000000E+000	70.5236	0.0000000E+000	0.0000000E+000	0.0000000E+000	-70.5236	0.0000000E+000	0.0000000E+000	0.0000000E+000	-19.4764	0.0000000E+000	0.0000000E+000	0.0000000E+000	19.4764	2.82761	70.5236	4.54245e-06	1.59596e-05	9.85452e-09	1.59498e-05	0.217853	2977.43	1.83846	2975.59
21544.7	2.02134	0.747724	2.1552	-20.3002	3.58856	0.217974	0.0787616	9.87959	1.18917	1	9	0.00527232	0.00244632	0	4.48623e-05	-0.000189682	4.71263e-05	-26.893	0.0192641	0.0171808	0.00871365	-20.3585	2.17434	2.03852	0.756438	0.435174	0.160978	0.463994	20.3002	1189.17	3214.72	3427.62	-69.6998	0.0000000E+000	0.0000000E+000	0.0000000E+000	69.6998	0.0000000E+000	0.0000000E+000	0.0000000E+000	-69.6998	0.0000000E+000	0.0000000E+000	0.0000000E+000	-20.3002	0.0000000E+000	0.0000000E+000	0.0000000E+000	20.3002	2.70332	69.6998	3.88027e-06	1.7168e-05	-1.49397e-08	1.71829e-05	0.218163	2767.51	2.40831	2769.92
14678.6	2.1923	0.819508	2.34047	-20.4963	3.97352	0.217976	0.0721336	13.2307	1.62212	1	9	0.00529549	0.00226258	0	5.39223e-05	-3.7079e-05	1.11346e-05	10.331	0.00492122	0.00484144	-0.000882548	-20.4347	2.34469	2.19714	0.818625	0.400217	0.149606	0.427265	20.4963	1622.12	4339.41	4632.69	-69.5037	0.0000000E+000	0.0000000E+000	0.0000000E+000	69.5037	0.0000000E+000	0.0000000E+000	0.0000000E+000	-69.5037	0.0000000E+000	0.0000000E+000	0.0000000E+000	-20.4963	0.0000000E+000	0.0000000E+000	0.0000000E+000	20.4963	2.67515	69.5037	9.05998e-06	1.57234e-05	-2.67464e-09	1.5726e-05	0.218013	3021.83	0.514032	3022.35
10002.2	2.37487	0.930474	2.55065	-21.3952	4.35856	0.217969	0.0821873	17.1009	2.27576	1	9	0.00519295	0.00203593	0	5.90164e-05	1.07189e-06	7.36087e-06	117.694	0.00361548	-0.00168028	-0.00320131	-21.342	2.54792	2.37319	0.927273	0.365039	0.143022	0.392057	21.3952	2275.76	5808.48	6238.4	-68.6048	0.0000000E+000	0.0000000E+000	0.0000000E+000	68.6048	0.0000000E+000	0.0000000E+000	0.0000000E+000	-68.6048	0.0000000E+000	0.0000000E+000	0.0000000E+000	-21.3952	0.0000000E+000	0.0000000E+000	0.0000000E+000	21.3952	2.55233	68.6048	5.09409e-06	1.79143e-05	8.8096e-11	1.79142e-05	0.217968	2652.1	0.0130421	2652.09
6810.42	2.55947	0.989754	2.74417	-21.1416	4.74156	0.217973	0.0676652	23.6112	3.0715	1	9	0.00514849	0.00187615	0	6.96626e-05	5.82982e-05	0.000177436	-68.344	0.0945745	0.0349011	0.0878991	-22.5571	2.80929	2.59437	1.07765	0.339881	0.131433	0.364408	21.1416	3071.5	7942.78	8515.98	-68.8584	0.0000000E+000	0.0000000E+000	0.0000000E+000	68.8584	0.0000000E+000	0.0000000E+000	0.0000000E+000	-68.8584	0.0000000E+000	0.0000000E+000	0.0000000E+000	-21.1416	0.0000000E+000	0.0000000E+000	0.0000000E+000	21.1416	2.58596	68.8584	1.06462e-05	1.47492e-05	3.94476e-09	1.47453e-05	0.217915	3221.35	0.861567	3220.49
4646	2.80204	1.189	3.04387	-22.9931	5.13364	0.217966	0.0673301	28.8111	4.39611	1	9	0.00503401	0.00165382	0	7.65908e-05	0.000115524	1.56445e-05	-19.3046	0.00945963	0.00892776	0.00312727	-22.9817	3.05331	2.81097	1.19213	0.302428	0.12833	0.328529	22.9931	4396.11	10360.1	11254.2	-67.0069	0.0000000E+000	0.0000000E+000	0.0000000E+000	67.0069	0.0000000E+000	0.0000000E+000	0.0000000E+000	-67.0069	0.0000000E+000	0.0000000E+000	0.0000000E+000	-22.9931	0.0000000E+000	0.0000000E+000	0.0000000E+000	22.9931	2.35664	67.0069	6.92816e-06	1.46757e-05	7.77827e-09	1.46679e-05	0.217851	3237.28	1.71579	3235.56
3163.08	3.04221	1.37284	3.33763	-24.2879	5.50668	0.217925	0.0580956	36.6514	6.20089	1	9	0.00505985	0.001516	0	8.35388e-05	3.92227e-05	3.51693e-06	39.7912	0.00231987	0.00178254	-0.0014847	-24.2521	3.33864	3.044	1.37135	0.273095	0.123238	0.299614	24.2879	6200.89	13741.2	15075.5	-65.7121	0.0000000E+000	0.0000000E+000	0.0000000E+000	65.7121	0.0000000E+000	0.0000000E+000	0.0000000E+000	-65.7121	0.0000000E+000	0.0000000E+000	0.0000000E+000	-24.2879	0.0000000E+000	0.0000000E+000	0.0000000E+000	24.2879	2.216	65.7121	6.948e-06	1.26605e-05	2.27867e-09	1.26582e-05	0.217886	3751.14	0.675142	3750.47
2155.69	3.35358	1.5882	3.71065	-25.3414	6.20283	0.217945	-0.000769853	46.4867	8.51607	1	10	0.00509316	0.00137258	0	8.72045e-05	-1.80035e-05	1.58626e-05	74.1813	0.0115568	0.00315032	-0.0111191	-25.1653	3.70875	3.35673	1.57708	0.243562	0.115347	0.269495	25.3414	8516.07	17982.2	19896.8	-64.6586	0.0000000E+000	0.0000000E+000	0.0000000E+000	64.6586	0.0000000E+000	0.0000000E+000	0.0000000E+000	-64.6586	0.0000000E+000	0.0000000E+000	0.0000000E+000	-25.3414	0.0000000E+000	0.0000000E+000	0.0000000E+000	25.3414	2.11156	64.6586	3.66577e-06	-1.67786e-07	1.38601e-11	-1.678e-07	0.217963	283100	23.3857	283123
1468.59	3.68034	1.87128	4.12875	-26.9511	6.65407	0.217942	-0.0016112	57.9137	11.8965	1	10	0.0050158	0.00121485	0	8.74404e-05	-0.000342286	9.59215e-06	-72.7107	0.00789577	0.0023466	0.00753901	-27.0295	4.13427	3.68269	1.87882	0.215899	0.109774	0.242204	26.9511	11896.5	23397.5	26248.3	-63.0489	0.0000000E+000	0.0000000E+000	0.0000000E+000	63.0489	0.0000000E+000	0.0000000E+000	0.0000000E+000	-63.0489	0.0000000E+000	0.0000000E+000	0.0000000E+000	-26.9511	0.0000000E+000	0.0000000E+000	0.0000000E+000	26.9511	1.96676	63.0489	2.35842e-07	-3.51148e-07	5.51491e-10	-3.517e-07	0.218284	135267	212.441	135479
1000.32	4.04134	2.21734	4.60967	-28.752	7.10482	0.217944	-0.000498097	71.7545	16.6025	1	10	0.00492113	0.00106757	0	8.66458e-05	0.0001346	5.02361e-06	104.383	0.00470566	-0.00116893	-0.00455816	-28.7093	4.60645	4.04017	2.21278	0.190189	0.10435	0.216935	28.752	16602.5	30259.9	34515.3	-61.248	0.0000000E+000	0.0000000E+000	0.0000000E+000	61.248	0.0000000E+000	0.0000000E+000	0.0000000E+000	-61.248	0.0000000E+000	0.0000000E+000	0.0000000E+000	-28.752	0.0000000E+000	0.0000000E+000	0.0000000E+000	28.752	1.82261	61.248	-7.94584e-07	-1.08557e-07	-6.70438e-11	-1.0849e-07	0.21781	437554	270.228	437283
681.09	4.45123	2.68188	5.19672	-31.0691	7.55454	0.217943	-0.00166332	87.1317	23.2058	1	10	0.00486243	0.000935673	0	8.70139e-05	-3.7079e-05	6.20414e-06	11.6994	0.00663067	0.00649292	-0.00134455	-31.0195	5.20159	4.45772	2.68054	0.164824	0.0993073	0.192429	31.0691	23205.8	38515.6	44966.2	-58.9309	0.0000000E+000	0.0000000E+000	0.0000000E+000	58.9309	0.0000000E+000	0.0000000E+000	0.0000000E+000	-58.9309	0.0000000E+000	0.0000000E+000	0.0000000E+000	-31.0691	0.0000000E+000	0.0000000E+000	0.0000000E+000	31.0691	1.65974	58.9309	3.68078e-07	-3.6251e-07	6.16742e-11	-3.62571e-07	0.217981	131029	22.2921	131051
463.961	4.91602	3.30575	5.92412	-33.9186	8.00634	0.21794	-0.001332	103.769	32.3118	1	10	0.00481598	0.000812945	0	8.729e-05	-0.000132456	1.65916e-05	54.7035	0.0204093	0.0117927	-0.0166575	-33.7213	5.92465	4.92781	3.28909	0.140077	0.0941937	0.168801	33.9186	32311.8	48051.3	57904.9	-56.0814	0.0000000E+000	0.0000000E+000	0.0000000E+000	56.0814	0.0000000E+000	0.0000000E+000	0.0000000E+000	-56.0814	0.0000000E+000	0.0000000E+000	0.0000000E+000	-33.9186	0.0000000E+000	0.0000000E+000	0.0000000E+000	33.9186	1.48711	56.0814	2.7616e-07	-2.90296e-07	1.76431e-10	-2.90473e-07	0.218073	163619	99.4416	163718
316.316	5.49933	4.1626	6.89709	-37.1231	8.45403	0.217934	-0.00185319	120.875	44.0283	1	10	0.00479262	0.000694876	0	8.65306e-05	5.82982e-05	1.04572e-05	-119.418	0.015049	-0.00739167	0.0131086	-37.2469	6.89912	5.49194	4.1757	0.115605	0.0875049	0.144989	37.1231	44028.3	58167.1	72951.3	-52.8769	0.0000000E+000	0.0000000E+000	0.0000000E+000	52.8769	0.0000000E+000	0.0000000E+000	0.0000000E+000	-52.8769	0.0000000E+000	0.0000000E+000	0.0000000E+000	-37.1231	0.0000000E+000	0.0000000E+000	0.0000000E+000	37.1231	1.32113	52.8769	-7.59495e-07	-4.03874e-07	-1.08038e-10	-4.03766e-07	0.217876	117600	31.4582	117568
215.345	6.26701	5.30749	8.21248	-40.261	8.90452	0.217938	-0.0018048	139.251	58.1602	1	10	0.00476751	0.00058052	0	8.59518e-05	-0.000285059	8.52647e-06	51.0313	0.0146877	0.00923699	-0.0114195	-40.1586	8.21216	6.27625	5.29607	0.0929205	0.0786937	0.121766	40.261	58160.2	68674.9	89993.6	-49.739	0.0000000E+000	0.0000000E+000	0.0000000E+000	49.739	0.0000000E+000	0.0000000E+000	0.0000000E+000	-49.739	0.0000000E+000	0.0000000E+000	0.0000000E+000	-40.261	0.0000000E+000	0.0000000E+000	0.0000000E+000	40.261	1.18079	49.739	-5.78743e-07	-3.93334e-07	5.14474e-10	-3.93848e-07	0.218223	120755	157.945	120913
146.737	7.40162	6.84025	10.0783	-42.7428	9.35048	0.217939	-0.00203561	158.565	73.0421	1	10	0.00475952	0.000472252	0	8.61411e-05	-0.000208758	1.06997e-05	34.9274	0.0226567	0.0185758	-0.0129718	-42.617	10.0832	7.42019	6.82728	0.0728699	0.0673432	0.0992226	42.7428	73042.1	79036.5	107619	-47.2572	0.0000000E+000	0.0000000E+000	0.0000000E+000	47.2572	0.0000000E+000	0.0000000E+000	0.0000000E+000	-47.2572	0.0000000E+000	0.0000000E+000	0.0000000E+000	-42.7428	0.0000000E+000	0.0000000E+000	0.0000000E+000	42.7428	1.08207	47.2572	1.89264e-07	-4.43639e-07	4.24949e-10	-4.44064e-07	0.218148	107063	102.553	107166
100.032	9.06734	8.61635	12.5083	-43.5391	9.80182	0.217934	-0.00177502	184.654	87.6206	1	10	0.00473573	0.000378606	0	8.57827e-05	-0.00032321	1.44671e-05	-34.5509	0.0382115	0.0314719	0.0216712	-43.5118	12.5461	9.09881	8.63802	0.0579538	0.0550713	0.0799468	43.5391	87620.6	92206.8	127199	-46.4609	0.0000000E+000	0.0000000E+000	0.0000000E+000	46.4609	0.0000000E+000	0.0000000E+000	0.0000000E+000	-46.4609	0.0000000E+000	0.0000000E+000	0.0000000E+000	-43.5391	0.0000000E+000	0.0000000E+000	0.0000000E+000	43.5391	1.05234	46.4609	-3.58392e-07	-3.86838e-07	5.73705e-10	-3.87411e-07	0.218257	122778	182.088	122960
68.104	11.5603	10.5382	15.6427	-42.3516	10.2645	0.217934	-0.00115705	221.76	100.644	1	10	0.00473341	0.000302595	0	8.55737e-05	-5.61544e-05	1.17947e-05	-103.695	0.0389786	-0.00922828	0.0378704	-42.4768	15.6614	11.5511	10.576	0.047244	0.0430667	0.0639276	42.3516	100644	110406	149395	-47.6484	0.0000000E+000	0.0000000E+000	0.0000000E+000	47.6484	0.0000000E+000	0.0000000E+000	0.0000000E+000	-47.6484	0.0000000E+000	0.0000000E+000	0.0000000E+000	-42.3516	0.0000000E+000	0.0000000E+000	0.0000000E+000	42.3516	1.097	47.6484	-2.08994e-07	-2.5216e-07	6.49732e-11	-2.52225e-07	0.217991	188354	48.5325	188403
46.4415	15.0692	12.2917	19.4465	-39.2035	10.9417	0.217949	-0.000808387	278.805	111.389	1	11	0.00473706	0.000243594	0	8.55963e-05	5.82982e-05	6.02251e-06	-36.4454	0.0247235	0.0198882	0.0146872	-39.2	19.4712	15.0891	12.3064	0.039848	0.0325033	0.051423	39.2035	111389	136559	176227	-50.7965	0.0000000E+000	0.0000000E+000	0.0000000E+000	50.7965	0.0000000E+000	0.0000000E+000	0.0000000E+000	-50.7965	0.0000000E+000	0.0000000E+000	0.0000000E+000	-39.2035	0.0000000E+000	0.0000000E+000	0.0000000E+000	39.2035	1.22597	50.7965	2.26304e-08	-1.76187e-07	-4.71275e-11	-1.7614e-07	0.217891	269610	72.1166	269538
31.6296	19.3824	13.2016	23.4512	-34.2594	11.3715	0.217944	-0.000992147	381.153	120.788	1	11	0.00474518	0.000202343	0	8.55038e-05	-9.43052e-05	6.04452e-06	91.9529	0.0298727	-0.00101802	-0.0298553	-34.2004	23.4336	19.3814	13.1718	0.0352433	0.0240047	0.0426417	34.2594	120788	177339	214566	-55.7406	0.0000000E+000	0.0000000E+000	0.0000000E+000	55.7406	0.0000000E+000	0.0000000E+000	0.0000000E+000	-55.7406	0.0000000E+000	0.0000000E+000	0.0000000E+000	-34.2594	0.0000000E+000	0.0000000E+000	0.0000000E+000	34.2594	1.46818	55.7406	-9.24702e-08	-2.16233e-07	9.35647e-11	-2.16326e-07	0.218039	219669	95.0516	219764
21.5517	23.7758	12.9907	27.0933	-28.6515	11.7924	0.21795	-0.0010734	568.466	130.691	1	11	0.00473798	0.000174876	0	8.52803e-05	-0.000208758	4.634e-06	-26.2693	0.0264987	0.023762	0.0117281	-28.6492	27.1198	23.7996	13.0025	0.03239	0.0176974	0.0369095	28.6515	130691	239193	272569	-61.3485	0.0000000E+000	0.0000000E+000	0.0000000E+000	61.3485	0.0000000E+000	0.0000000E+000	0.0000000E+000	-61.3485	0.0000000E+000	0.0000000E+000	0.0000000E+000	-28.6515	0.0000000E+000	0.0000000E+000	0.0000000E+000	28.6515	1.83021	61.3485	-2.23497e-07	-2.33949e-07	2.24082e-10	-2.34173e-07	0.218159	203046	194.482	203240
14.6852	27.7035	11.4466	29.9752	-22.4495	12.2532	0.217965	-0.000438635	946.814	138.069	1	11	0.00471996	0.000157462	0	8.45564e-05	1.07189e-06	2.59607e-05	-81.7341	0.16487	0.0237028	0.163157	-22.7197	30.0597	27.7272	11.6098	0.0308327	0.0127395	0.0333609	22.4495	138069	334159	361560	-67.5505	0.0000000E+000	0.0000000E+000	0.0000000E+000	67.5505	0.0000000E+000	0.0000000E+000	0.0000000E+000	-67.5505	0.0000000E+000	0.0000000E+000	0.0000000E+000	-22.4495	0.0000000E+000	0.0000000E+000	0.0000000E+000	22.4495	2.42024	67.5505	-7.23968e-07	-9.5607e-08	-4.7017e-13	-9.56065e-08	0.217964	496916	2.4437	496914
10.0032	30.7081	9.87779	32.2577	-17.8313	12.7038	0.21795	-0.000780062	1610.72	151.034	1	11	0.00472388	0.000146442	0	8.45273e-05	-0.000113381	4.35835e-06	-70.7863	0.0297616	0.00979431	0.0281039	-17.8734	32.2756	30.7179	9.90589	0.0295112	0.00949277	0.0310004	17.8313	151034	469535	493228	-72.1687	0.0000000E+000	0.0000000E+000	0.0000000E+000	72.1687	0.0000000E+000	0.0000000E+000	0.0000000E+000	-72.1687	0.0000000E+000	0.0000000E+000	0.0000000E+000	-17.8313	0.0000000E+000	0.0000000E+000	0.0000000E+000	17.8313	3.1088	72.1687	-2.90966e-08	-1.70014e-07	8.8444e-11	-1.70103e-07	0.218063	279400	145.348	279546
6.81719	32.8348	7.99597	33.7943	-13.6864	13.0435	0.217952	3.47404e-05	2919.73	163.455	1	11	0.00472225	0.000139735	0	8.38203e-05	-1.80035e-05	1.59157e-05	-59.3525	0.113899	0.0580607	0.0979899	-13.8242	33.874	32.8928	8.09396	0.0287505	0.00700138	0.0295908	13.6864	163455	671214	690829	-76.3136	0.0000000E+000	0.0000000E+000	0.0000000E+000	76.3136	0.0000000E+000	0.0000000E+000	0.0000000E+000	-76.3136	0.0000000E+000	0.0000000E+000	0.0000000E+000	-13.6864	0.0000000E+000	0.0000000E+000	0.0000000E+000	13.6864	4.10641	76.3136	-7.06998e-07	7.57173e-09	-6.2545e-13	7.57236e-09	0.21797	6.27372e+06	518.23	6.27424e+06
4.63925	34.3955	6.5058	35.0054	-10.7108	13.5285	0.217952	-0.000247049	5273.17	182.139	1	11	0.0047299	0.000135119	0	8.52777e-05	-0.000151531	5.04927e-06	62.2717	0.037369	0.017387	-0.0330777	-10.6523	35.0164	34.4129	6.47272	0.0280693	0.00530921	0.028567	10.7108	182139	962951	980025	-79.2892	0.0000000E+000	0.0000000E+000	0.0000000E+000	79.2892	0.0000000E+000	0.0000000E+000	0.0000000E+000	-79.2892	0.0000000E+000	0.0000000E+000	0.0000000E+000	-10.7108	0.0000000E+000	0.0000000E+000	0.0000000E+000	10.7108	5.28691	79.2892	1.45737e-06	-5.38449e-08	3.74357e-11	-5.38823e-08	0.218104	882224	613.367	882838
3.1604	35.4911	5.19045	35.8686	-8.32032	14.2214	0.217959	0.000366476	9702.28	203.167	1	11	0.00473016	0.000131875	0	8.61689e-05	-0.000361361	8.40135e-06	-32.7875	0.0637071	0.0535576	0.0344989	-8.3624	35.9266	35.5447	5.22495	0.0275861	0.00403437	0.0278795	8.32032	203167	1.38921e+06	1.40399e+06	-81.6797	0.0000000E+000	0.0000000E+000	0.0000000E+000	81.6797	0.0000000E+000	0.0000000E+000	0.0000000E+000	-81.6797	0.0000000E+000	0.0000000E+000	0.0000000E+000	-8.32032	0.0000000E+000	0.0000000E+000	0.0000000E+000	8.32032	6.83777	81.6797	8.91233e-07	7.98769e-08	-1.3243e-10	8.00094e-08	0.218321	594744	986.043	595730
2.15577	36.3006	4.24914	36.5484	-6.67633	15.2251	0.217953	0.000808169	17374.7	234.845	1	11	0.00473456	0.000129542	0	8.49061e-05	-3.7079e-05	6.44571e-06	-124.587	0.0497577	-0.028245	0.040964	-6.7453	36.5252	36.2724	4.2901	0.0271754	0.00318099	0.0273609	6.67633	234845	2.00629e+06	2.01999e+06	-83.3237	0.0000000E+000	0.0000000E+000	0.0000000E+000	83.3237	0.0000000E+000	0.0000000E+000	0.0000000E+000	-83.3237	0.0000000E+000	0.0000000E+000	0.0000000E+000	-6.67633	0.0000000E+000	0.0000000E+000	0.0000000E+000	6.67633	8.54305	83.3237	-1.26278e-06	1.76143e-07	-2.99661e-11	1.76173e-07	0.21799	269687	45.8802	269733
1.46631	36.9204	3.57723	37.0933	-5.53413	17.4133	0.217954	0.00024852	30342.2	282.195	1	12	0.00473353	0.000127611	0	8.19624e-05	3.92227e-05	4.9523e-06	20.6556	0.0388077	0.0363131	-0.0136894	-5.5077	37.1282	36.9568	3.56354	0.0268334	0.00259989	0.026959	5.53413	282195	2.91252e+06	2.92616e+06	-84.4659	0.0000000E+000	0.0000000E+000	0.0000000E+000	84.4659	0.0000000E+000	0.0000000E+000	0.0000000E+000	-84.4659	0.0000000E+000	0.0000000E+000	0.0000000E+000	-5.53413	0.0000000E+000	0.0000000E+000	0.0000000E+000	5.53413	10.3209	84.4659	-2.94367e-06	5.4166e-08	9.74764e-12	5.41562e-08	0.217915	877007	157.825	876849
1.00006	37.5393	3.10599	37.6675	-4.72987	19.5408	0.217956	-0.000638961	51238	348.384	1	12	0.00473309	0.000125654	0	8.0991e-05	-0.000208758	1.27373e-06	161.994	0.0101368	-0.00964034	-0.0031334	-4.72632	37.6577	37.5296	3.10286	0.0264576	0.0021891	0.0265481	4.72987	348384	4.2106e+06	4.22498e+06	-85.2701	0.0000000E+000	0.0000000E+000	0.0000000E+000	85.2701	0.0000000E+000	0.0000000E+000	0.0000000E+000	-85.2701	0.0000000E+000	0.0000000E+000	0.0000000E+000	-4.72987	0.0000000E+000	0.0000000E+000	0.0000000E+000	4.72987	12.0861	85.2701	-9.71464e-07	-1.39266e-07	1.33388e-10	-1.39399e-07	0.218165	341111	326.715	341438
0.681362	37.9956	2.83343	38.1011	-4.2648	22.653	0.217956	2.51853e-05	82438.3	455.91	1	12	0.00473272	0.000124215	0	8.36036e-05	-0.000189682	1.09867e-06	-28.5832	0.00884489	0.00776691	0.0042317	-4.27028	38.1092	38.0034	2.83766	0.0261733	0.00195181	0.0262459	4.2648	455910	6.11364e+06	6.13062e+06	-85.7352	0.0000000E+000	0.0000000E+000	0.0000000E+000	85.7352	0.0000000E+000	0.0000000E+000	0.0000000E+000	-85.7352	0.0000000E+000	0.0000000E+000	0.0000000E+000	-4.2648	0.0000000E+000	0.0000000E+000	0.0000000E+000	4.2648	13.4098	85.7352	2.61264e-06	5.48931e-09	-4.77721e-12	5.49408e-09	0.218146	8.6541e+06	7531.46	8.66163e+06
0.464091	38.3906	2.68251	38.4842	-3.997	27.2096	0.217959	-3.95264e-05	127843	621.146	1	12	0.00473108	0.000122936	0	9.113e-05	2.01473e-05	2.03829e-06	8.36993	0.0165801	0.0164035	-0.00241347	-3.99171	38.5004	38.407	2.6801	0.0259215	0.00181124	0.0259847	3.997	621145	8.88949e+06	8.91117e+06	-86.003	0.0000000E+000	0.0000000E+000	0.0000000E+000	86.003	0.0000000E+000	0.0000000E+000	0.0000000E+000	-86.003	0.0000000E+000	0.0000000E+000	0.0000000E+000	-3.997	0.0000000E+000	0.0000000E+000	0.0000000E+000	3.997	14.3114	86.003	7.52634e-06	-8.61511e-09	-7.9635e-13	-8.61431e-09	0.217938	5.51426e+06	509.718	5.51375e+06
0.316193	38.8636	2.6519	38.9539	-3.9036	33.883	0.217959	0.000228494	189806	879.677	1	12	0.00473243	0.000121488	0	0.000101407	-0.000265984	1.54927e-06	-60.7073	0.0127524	0.0062394	0.0111218	-3.91929	38.9609	38.8698	2.66303	0.0256118	0.00174765	0.0256714	3.9036	879677	1.28916e+07	1.29216e+07	-86.0964	0.0000000E+000	0.0000000E+000	0.0000000E+000	86.0964	0.0000000E+000	0.0000000E+000	0.0000000E+000	-86.0964	0.0000000E+000	0.0000000E+000	0.0000000E+000	-3.9036	0.0000000E+000	0.0000000E+000	0.0000000E+000	3.9036	14.655	86.0964	1.02772e-05	4.98023e-08	-6.07758e-11	4.98631e-08	0.218225	953894	1164.07	955058
0.215268	39.3854	2.82312	39.4864	-4.09991	43.6764	0.217963	0.000541126	261886	1338.67	1	12	0.00473412	0.000119892	0	0.000109145	-7.52298e-05	5.63916e-06	42.6101	0.0470352	0.0346169	-0.0318431	-4.05027	39.5187	39.42	2.79127	0.0252603	0.00181064	0.0253251	4.09991	1.33867e+06	1.86758e+07	1.87238e+07	-85.9001	0.0000000E+000	0.0000000E+000	0.0000000E+000	85.9001	0.0000000E+000	0.0000000E+000	0.0000000E+000	-85.9001	0.0000000E+000	0.0000000E+000	0.0000000E+000	-4.09991	0.0000000E+000	0.0000000E+000	0.0000000E+000	4.09991	13.951	85.9001	7.73757e-06	1.17945e-07	-4.07088e-11	1.17986e-07	0.218038	402794	139.024	402933
0.146929	39.854	3.12404	39.9763	-4.48207	58.0148	0.217958	0.000953169	346735	2117.5	1	12	0.00472913	0.000118298	0	0.000106422	2.01473e-05	3.58664e-06	-80.2088	0.0303186	0.00515592	0.029877	-4.52418	39.9838	39.8592	3.15391	0.0249383	0.00195484	0.0250148	4.48207	2.1175e+06	2.70135e+07	2.70963e+07	-85.5179	0.0000000E+000	0.0000000E+000	0.0000000E+000	85.5179	0.0000000E+000	0.0000000E+000	0.0000000E+000	-85.5179	0.0000000E+000	0.0000000E+000	0.0000000E+000	-4.48207	0.0000000E+000	0.0000000E+000	0.0000000E+000	4.48207	12.7572	85.5179	-2.72226e-06	2.0775e-07	1.92038e-11	2.07731e-07	0.217938	228666	21.1372	228645
0.0999041	40.6571	3.64237	40.8199	-5.11932	79.0909	0.217964	0.00121032	437374	3482.38	1	12	0.00472903	0.000115851	0	8.10775e-05	-0.000227833	2.35846e-06	12.6426	0.0203577	0.0198641	-0.00445567	-5.11061	40.8393	40.677	3.63791	0.0244001	0.00218595	0.0244978	5.11932	3.48238e+06	3.88713e+07	3.9027e+07	-84.8807	0.0000000E+000	0.0000000E+000	0.0000000E+000	84.8807	0.0000000E+000	0.0000000E+000	0.0000000E+000	-84.8807	0.0000000E+000	0.0000000E+000	0.0000000E+000	-5.11932	0.0000000E+000	0.0000000E+000	0.0000000E+000	5.11932	11.1623	84.8807	-2.5345e-05	2.63805e-07	-2.7575e-10	2.64081e-07	0.218192	180088	188.243	180277
0.0680626	41.0265	4.39196	41.2609	-6.11034	110.018	0.217963	0.00132204	532419	6032.42	1	12	0.00473516	0.000114761	0	4.69033e-05	-0.000246909	3.4963e-06	-5.45344	0.0304659	0.030328	0.00289538	-6.10985	41.2914	41.0569	4.39485	0.0240983	0.00257976	0.024236	6.11034	6.03242e+06	5.63505e+07	5.66725e+07	-83.8897	0.0000000E+000	0.0000000E+000	0.0000000E+000	83.8897	0.0000000E+000	0.0000000E+000	0.0000000E+000	-83.8897	0.0000000E+000	0.0000000E+000	0.0000000E+000	-6.11034	0.0000000E+000	0.0000000E+000	0.0000000E+000	6.11034	9.34128	83.8897	-3.41743e-05	2.88157e-07	-3.26424e-10	2.88484e-07	0.21821	164868	186.763	165055
0.0464052	41.872	5.31458	42.2079	-7.23356	155.37	0.21797	0.000641523	645334	10231.4	1	12	0.00473106	0.00011209	0	1.47598e-06	-0.000285059	1.91427e-06	-7.16533	0.017078	0.0169446	0.00213019	-7.23353	42.225	41.8889	5.31671	0.0235037	0.0029832	0.0236923	7.23356	1.02314e+07	8.06101e+07	8.12568e+07	-82.7664	0.0000000E+000	0.0000000E+000	0.0000000E+000	82.7664	0.0000000E+000	0.0000000E+000	0.0000000E+000	-82.7664	0.0000000E+000	0.0000000E+000	0.0000000E+000	-7.23356	0.0000000E+000	0.0000000E+000	0.0000000E+000	7.23356	7.8787	82.7664	-4.54273e-05	1.39833e-07	-1.82872e-10	1.40016e-07	0.218255	339770	444.348	340215
0.0315922	42.9815	6.76892	43.5112	-8.94969	221.974	0.21797	0.00037417	744253	18011.8	1	12	0.00473327	0.000108783	0	-1.46168e-05	-5.61544e-05	2.93371e-06	-2.53253	0.0269685	0.0269421	0.00119165	-8.94573	43.538	43.0084	6.77011	0.0227028	0.00357533	0.0229826	8.94969	1.80118e+07	1.14372e+08	1.15781e+08	-81.0503	0.0000000E+000	0.0000000E+000	0.0000000E+000	81.0503	0.0000000E+000	0.0000000E+000	0.0000000E+000	-81.0503	0.0000000E+000	0.0000000E+000	0.0000000E+000	-8.94969	0.0000000E+000	0.0000000E+000	0.0000000E+000	8.94969	6.34983	81.0503	-1.60928e-05	8.15579e-08	-2.10113e-11	8.15789e-08	0.218026	582542	150.077	582692
0.0215268	44.0929	8.70995	44.9449	-11.1742	319.713	0.217968	0.000432273	848839	31878.4	1	12	0.00473148	0.000105273	0	5.84431e-05	-0.000246909	3.62963e-06	32.7481	0.0344783	0.0289982	-0.0186509	-11.1437	44.9697	44.1219	8.6913	0.0218277	0.00431176	0.0222495	11.1742	3.18784e+07	1.6138e+08	1.64498e+08	-78.8259	0.0000000E+000	0.0000000E+000	0.0000000E+000	78.8259	0.0000000E+000	0.0000000E+000	0.0000000E+000	-78.8259	0.0000000E+000	0.0000000E+000	0.0000000E+000	-11.1742	0.0000000E+000	0.0000000E+000	0.0000000E+000	11.1742	5.06235	78.8259	7.30599e-05	9.42218e-08	-1.06732e-10	9.43285e-08	0.218215	504236	571.186	504808
0.0146812	45.4348	11.0847	46.7674	-13.7106	463.016	0.21797	0.000887692	977991	54941.1	1	12	0.00473274	0.000101197	0	0.000275993	-0.00032321	1.65733e-06	48.772	0.0163772	0.0107935	-0.0123172	-13.6928	46.775	45.4456	11.0724	0.0207731	0.00506802	0.0213824	13.7106	5.49411e+07	2.25196e+08	2.31801e+08	-76.2894	0.0000000E+000	0.0000000E+000	0.0000000E+000	76.2894	0.0000000E+000	0.0000000E+000	0.0000000E+000	-76.2894	0.0000000E+000	0.0000000E+000	0.0000000E+000	-13.7106	0.0000000E+000	0.0000000E+000	0.0000000E+000	13.7106	4.09887	76.2894	0.00021755	1.9349e-07	-2.86911e-10	1.93777e-07	0.218293	245547	364.102	245911
0.0100092	47.5686	14.1254	49.6215	-16.5387	673.198	0.217973	0.00158908	1.12569e+06	91218.6	1	12	0.00473448	9.54119e-05	0	0.00063891	-0.000113381	3.8856e-06	-13.1907	0.0407244	0.03965	0.00929302	-16.536	49.6622	47.6082	14.1347	0.0193188	0.00573669	0.0201525	16.5387	9.12187e+07	3.07186e+08	3.20444e+08	-73.4613	0.0000000E+000	0.0000000E+000	0.0000000E+000	73.4613	0.0000000E+000	0.0000000E+000	0.0000000E+000	-73.4613	0.0000000E+000	0.0000000E+000	0.0000000E+000	-16.5387	0.0000000E+000	0.0000000E+000	0.0000000E+000	16.5387	3.36758	73.4613	0.000362917	3.46378e-07	-1.80171e-10	3.46558e-07	0.218087	137169	71.3497	137241