File: txt/19506_R316_UA717_SOC00_C08.mpt
EC-Lab ASCII FILE
Nb header lines : 65

Potentio Electrochemical Impedance Spectroscopy

Run on channel : 8 (SN 65398)
User :
CE vs. WE compliance from -10 V to 10 V
Electrode connection : standard
Potential control : Ewe
Ewe ctrl range : min = -10.00 V, max = 10.00 V
Safety Limits :
	Do not start on E overload
Acquisition started on : 12/04/2025 15:15:31.968
Technique started on : 12/04/2025 15:15:34.022
Loaded Setting File :  NONE
Saved on :
	File : 19506_R316_UA717_SOC00_C08.mpr
	Directory : C:\Users\Celltest\OneDrive - store-dot.com\Documents\EC-Lab\Data\Charmaine\
	Host : 169.254.61.224
Device : VMP-3e (SN .003165)
Address : USB
EC-LAB for windows v11.62 (software)
Internet server v27.00 (firmware)
Command interpretor v12.03 (firmware)
Electrode material :
Initial state :
Electrolyte :
Comments :
Electrode surface area : 0.001 cm²
Characteristic mass : 0.001 g
Equivalent Weight : 0.000 g/eq.
Density : 0.000 g/cm3
Volume (V) : 0.001 cm³
Record Ece
Cycle Definition : Charge/Discharge alternance
Mode                Single sine
E (V)               0.0000
vs.                 Eoc
tE (h:m:s)          0:00:0.0000
record              0
dI                  0.000
unit dI             mA
dt (s)              0.000
fi                  100.000
unit fi             kHz
ff                  10.000
unit ff             mHz
Nd                  6
Points              per decade
spacing             Logarithmic
Va (mV)             5.0
pw                  0.10
Na                  2
corr                0
E range min (V)     -10.000
E range max (V)     10.000
I Range             Auto
Bandwidth           5
nc cycles           0
goto Ns'            0
nr cycles           0
inc. cycle          0

freq/Hz	Re(Z)/Ohm	-Im(Z)/Ohm	|Z|/Ohm	Phase(Z)/deg	time/s	<Ewe>/V	<I>/mA	Cs/µF	Cp/µF	cycle number	I Range	|Ewe|/V	|I|/A	Ns	(Q-Qo)/mA.h	<Ece>/V	|Ece|/V	Phase(Zce)/deg	|Zce|/Ohm	Re(Zce)/Ohm	-Im(Zce)/Ohm	Phase(Zwe-ce)/deg	|Zwe-ce|/Ohm	Re(Zwe-ce)/Ohm	-Im(Zwe-ce)/Ohm	Re(Y)/Ohm-1	Im(Y)/Ohm-1	|Y|/Ohm-1	Phase(Y)/deg	Re(C)/nF	Im(C)/nF	|C|/nF	Phase(C)/deg	Re(M)	Im(M)	|M|	Phase(M)/deg	Re(Permittivity)	Im(Permittivity)	|Permittivity|	Phase(Permittivity)/deg	Re(Resistivity)/Ohm.cm	Im(Resistivity)/Ohm.cm	|Resistivity|/Ohm.cm	Phase(Resistivity)/deg	Re(Conductivity)/mS/cm	Im(Conductivity)/mS/cm	|Conductivity|/mS/cm	Phase(Conductivity)/deg	Tan(Delta)	Loss Angle(Delta)/deg	dq/mA.h	Pwe/W	Pce/W	Pwe-ce/W	<Ewe-Ece>/V	Rwe/Ohm	Rce/Ohm	Rwe-ce/Ohm		Ewe-Ece/V
100004	1.41802	0.54957	1.52079	-21.1845	2.05356	0.278262	0.0292434	2.89588	0.378173	1	9	0.00489157	0.00321647	0	2.00932e-06	-0.000310982	4.21252e-05	56.3236	0.0130967	0.00726215	-0.0108989	-20.7037	1.52367	1.42528	0.538672	0.613118	0.237622	0.657554	21.1845	378.173	975.771	1046.49	-68.8155	0.0000000E+000	0.0000000E+000	0.0000000E+000	68.8155	0.0000000E+000	0.0000000E+000	0.0000000E+000	-68.8155	0.0000000E+000	0.0000000E+000	0.0000000E+000	-21.1845	0.0000000E+000	0.0000000E+000	0.0000000E+000	21.1845	2.58022	68.8155	2.00932e-06	8.13732e-06	-9.09416e-09	8.14641e-06	0.278573	9515.39	10.6343	9526.02
68132	1.56277	0.650726	1.69284	-22.6064	2.43655	0.278255	0.0229562	3.5898	0.530438	1	9	0.00526101	0.0031078	0	5.76967e-06	-6.28373e-05	3.40196e-05	55.8318	0.0109465	0.00614783	-0.00905707	-22.2439	1.69507	1.56892	0.641669	0.545336	0.227073	0.590723	22.6064	530.438	1273.89	1379.92	-67.3936	0.0000000E+000	0.0000000E+000	0.0000000E+000	67.3936	0.0000000E+000	0.0000000E+000	0.0000000E+000	-67.3936	0.0000000E+000	0.0000000E+000	0.0000000E+000	-22.6064	0.0000000E+000	0.0000000E+000	0.0000000E+000	22.6064	2.40159	67.3936	3.76036e-06	6.38769e-06	-1.4425e-09	6.38913e-06	0.278318	12121.1	2.73727	12123.9
46420.4	1.73317	0.735397	1.88273	-22.9919	2.81955	0.278245	0.0372046	4.66219	0.711307	1	9	0.0053129	0.00282191	0	8.89519e-06	1.35149e-05	1.73e-05	44.0332	0.00613058	0.0044075	-0.00426121	-22.8204	1.88513	1.73757	0.731136	0.488949	0.207465	0.531143	22.9919	711.307	1676.39	1821.06	-67.0081	0.0000000E+000	0.0000000E+000	0.0000000E+000	67.0081	0.0000000E+000	0.0000000E+000	0.0000000E+000	-67.0081	0.0000000E+000	0.0000000E+000	0.0000000E+000	-22.9919	0.0000000E+000	0.0000000E+000	0.0000000E+000	22.9919	2.35677	67.0081	3.12552e-06	1.0352e-05	5.02819e-10	1.03515e-05	0.278231	7478.77	0.36326	7478.41
31621.1	1.91304	0.831012	2.08574	-23.4798	3.20254	0.278251	0.0206496	6.05669	0.961454	1	9	0.00526734	0.0025254	0	1.28796e-05	8.98672e-05	9.83521e-06	4.79936	0.00389451	0.00388086	-0.000325841	-23.4292	2.08917	1.91693	0.830686	0.439748	0.191023	0.479446	23.4798	961.454	2213.33	2413.14	-66.5202	0.0000000E+000	0.0000000E+000	0.0000000E+000	66.5202	0.0000000E+000	0.0000000E+000	0.0000000E+000	-66.5202	0.0000000E+000	0.0000000E+000	0.0000000E+000	-23.4798	0.0000000E+000	0.0000000E+000	0.0000000E+000	23.4798	2.30207	66.5202	3.98443e-06	5.74579e-06	1.85573e-09	5.74393e-06	0.278161	13474.9	4.35199	13470.5
21544.7	2.13272	0.919758	2.32259	-23.3287	3.58757	0.27825	0.0271228	8.03168	1.25953	1	9	0.00522679	0.00225041	0	9.09004e-06	-0.000310982	4.8795e-05	10.0066	0.0216827	0.0213528	-0.00376761	-23.037	2.34074	2.15407	0.915991	0.395355	0.170502	0.430554	23.3287	1259.53	2920.57	3180.59	-66.6713	0.0000000E+000	0.0000000E+000	0.0000000E+000	66.6713	0.0000000E+000	0.0000000E+000	0.0000000E+000	-66.6713	0.0000000E+000	0.0000000E+000	0.0000000E+000	-23.3287	0.0000000E+000	0.0000000E+000	0.0000000E+000	23.3287	2.31878	66.6713	-3.78958e-06	7.54693e-06	-8.43471e-09	7.55537e-06	0.278561	10258.9	11.4657	10270.4
14678.6	2.34549	1.01736	2.55663	-23.4488	3.97253	0.278248	0.0247791	10.6577	1.68762	1	9	0.00532939	0.00208454	0	1.47952e-05	-6.28373e-05	1.13591e-05	21.6449	0.00544923	0.00506499	-0.00200997	-23.3624	2.56048	2.35056	1.01535	0.358838	0.155646	0.39114	23.4488	1687.62	3890.76	4241	-66.5512	0.0000000E+000	0.0000000E+000	0.0000000E+000	66.5512	0.0000000E+000	0.0000000E+000	0.0000000E+000	-66.5512	0.0000000E+000	0.0000000E+000	0.0000000E+000	-23.4488	0.0000000E+000	0.0000000E+000	0.0000000E+000	23.4488	2.30547	66.5512	5.70516e-06	6.89473e-06	-1.55705e-09	6.89628e-06	0.278311	11229.1	2.5359	11231.7
10002.2	2.58451	1.12829	2.82006	-23.584	4.35752	0.278244	0.0301734	14.1027	2.2575	1	9	0.00525867	0.00186474	0	1.53929e-05	-0.000291894	8.8664e-06	42.2288	0.00475476	0.00352075	-0.00319564	-23.496	2.82201	2.58803	1.12509	0.324984	0.141874	0.354603	23.584	2257.5	5171.13	5642.42	-66.416	0.0000000E+000	0.0000000E+000	0.0000000E+000	66.416	0.0000000E+000	0.0000000E+000	0.0000000E+000	-66.416	0.0000000E+000	0.0000000E+000	0.0000000E+000	-23.584	0.0000000E+000	0.0000000E+000	0.0000000E+000	23.584	2.29065	66.416	5.97744e-07	8.39557e-06	-8.80743e-09	8.40438e-06	0.278536	9221.5	9.67388	9231.18
6810.42	2.81325	1.25858	3.08195	-24.1026	4.74256	0.278247	0.0286481	18.568	3.09654	1	9	0.00512578	0.00166316	0	1.67614e-05	1.35149e-05	4.88563e-05	-33.473	0.0293756	0.0245035	0.0162019	-24.1907	3.11094	2.83776	1.27478	0.296181	0.132504	0.32447	24.1026	3096.54	6921.55	7582.64	-65.8974	0.0000000E+000	0.0000000E+000	0.0000000E+000	65.8974	0.0000000E+000	0.0000000E+000	0.0000000E+000	-65.8974	0.0000000E+000	0.0000000E+000	0.0000000E+000	-24.1026	0.0000000E+000	0.0000000E+000	0.0000000E+000	24.1026	2.23526	65.8974	1.36844e-06	7.97126e-06	3.87178e-10	7.97087e-06	0.278234	9712.59	0.471757	9712.12
4646	3.1259	1.41983	3.43324	-24.4283	5.1376	0.278243	0.0218029	24.1271	4.12637	1	9	0.00515188	0.00150059	0	1.94702e-05	-0.000463686	1.17377e-05	-61.2783	0.00782204	0.00375892	0.00685965	-24.5064	3.4395	3.12966	1.42669	0.265195	0.120456	0.29127	24.4283	4126.37	9084.62	9977.83	-65.5717	0.0000000E+000	0.0000000E+000	0.0000000E+000	65.5717	0.0000000E+000	0.0000000E+000	0.0000000E+000	-65.5717	0.0000000E+000	0.0000000E+000	0.0000000E+000	-24.4283	0.0000000E+000	0.0000000E+000	0.0000000E+000	24.4283	2.2016	65.5717	2.70886e-06	6.06651e-06	-1.01097e-08	6.07662e-06	0.278707	12761.8	21.2672	12783
3163.08	3.43243	1.6028	3.78821	-25.0306	5.72067	0.278213	-0.00877513	31.3929	5.6198	1	10	0.00525052	0.00138602	0	2.05467e-05	-0.000177366	4.80017e-06	-1.85536	0.00346328	0.00346147	0.000112129	-25.01	3.79139	3.43589	1.60291	0.239185	0.111689	0.263977	25.0306	5619.8	12034.9	13282.4	-64.9694	0.0000000E+000	0.0000000E+000	0.0000000E+000	64.9694	0.0000000E+000	0.0000000E+000	0.0000000E+000	-64.9694	0.0000000E+000	0.0000000E+000	0.0000000E+000	-25.0306	0.0000000E+000	0.0000000E+000	0.0000000E+000	25.0306	2.14152	64.9694	1.07642e-06	-2.44136e-06	1.55641e-09	-2.44292e-06	0.278391	31704.7	20.2123	31725
2155.69	3.75431	1.81237	4.16888	-25.7687	6.17183	0.278228	-0.00386106	40.7368	7.69915	1	10	0.00525594	0.00126076	0	2.09993e-05	0.000147131	5.07288e-05	76.1854	0.0402367	0.00960777	-0.0390728	-25.2266	4.16073	3.76392	1.7733	0.216019	0.104282	0.239873	25.7687	7699.15	15948.7	17709.9	-64.2314	0.0000000E+000	0.0000000E+000	0.0000000E+000	64.2314	0.0000000E+000	0.0000000E+000	0.0000000E+000	-64.2314	0.0000000E+000	0.0000000E+000	0.0000000E+000	-25.7687	0.0000000E+000	0.0000000E+000	0.0000000E+000	25.7687	2.07149	64.2314	4.52603e-07	-1.07425e-06	-5.68082e-10	-1.07369e-06	0.278081	72060	38.1065	72021.9
1468.59	4.12827	2.11849	4.64011	-27.1655	6.6231	0.278223	-0.00455669	51.1555	10.6633	1	10	0.00520456	0.00112165	0	1.94809e-05	-6.28373e-05	1.12648e-05	18.3216	0.0100431	0.00953402	-0.00315706	-27.0772	4.64715	4.1378	2.11534	0.19174	0.0983946	0.215512	27.1655	10663.3	20779.3	23355.6	-62.8345	0.0000000E+000	0.0000000E+000	0.0000000E+000	62.8345	0.0000000E+000	0.0000000E+000	0.0000000E+000	-62.8345	0.0000000E+000	0.0000000E+000	0.0000000E+000	-27.1655	0.0000000E+000	0.0000000E+000	0.0000000E+000	27.1655	1.94868	62.8345	-1.51834e-06	-1.26778e-06	2.8633e-10	-1.26806e-06	0.278286	61058.2	13.7901	61072
1000.32	4.50389	2.51577	5.15888	-29.1867	7.07381	0.27822	-0.00344071	63.2428	15.0397	1	10	0.0051175	0.000991979	0	1.87598e-05	1.35149e-05	6.44744e-06	6.26224	0.00649958	0.00646079	-0.000708969	-29.1449	5.16418	4.51035	2.51506	0.16923	0.0945277	0.19384	29.1867	15039.7	26925.1	30840.8	-60.8133	0.0000000E+000	0.0000000E+000	0.0000000E+000	60.8133	0.0000000E+000	0.0000000E+000	0.0000000E+000	-60.8133	0.0000000E+000	0.0000000E+000	0.0000000E+000	-29.1867	0.0000000E+000	0.0000000E+000	0.0000000E+000	29.1867	1.79026	60.8133	-7.21095e-07	-9.57273e-07	-4.6501e-11	-9.57226e-07	0.278206	80861.2	3.92796	80857.2
681.09	4.91248	3.054	5.78441	-31.8685	7.52357	0.278231	-0.0039615	76.5151	21.3288	1	10	0.00503775	0.00087092	0	1.77744e-05	0.000147131	3.92206e-06	149.172	0.00450335	-0.00386708	-0.00230778	-31.8693	5.7799	4.90861	3.05169	0.146819	0.0912749	0.172879	31.8685	21328.8	34308.3	40397.7	-58.1315	0.0000000E+000	0.0000000E+000	0.0000000E+000	58.1315	0.0000000E+000	0.0000000E+000	0.0000000E+000	-58.1315	0.0000000E+000	0.0000000E+000	0.0000000E+000	-31.8685	0.0000000E+000	0.0000000E+000	0.0000000E+000	31.8685	1.60854	58.1315	-9.85381e-07	-1.10221e-06	-5.82861e-10	-1.10163e-06	0.278083	70233.6	37.1403	70196.5
463.961	5.40721	3.81914	6.61995	-35.2338	7.97531	0.278229	-0.00324356	89.82	29.8948	1	10	0.00499326	0.000754274	0	1.76737e-05	1.35149e-05	6.76282e-06	67.5661	0.008966	0.00342159	-0.00828746	-35.1581	6.61797	5.41063	3.81086	0.123385	0.0871478	0.151059	35.2338	29894.8	42325.5	51818.4	-54.7662	0.0000000E+000	0.0000000E+000	0.0000000E+000	54.7662	0.0000000E+000	0.0000000E+000	0.0000000E+000	-54.7662	0.0000000E+000	0.0000000E+000	0.0000000E+000	-35.2338	0.0000000E+000	0.0000000E+000	0.0000000E+000	35.2338	1.41582	54.7662	-1.00742e-07	-9.02452e-07	-4.38365e-11	-9.02408e-07	0.278216	85779	4.1667	85774.8
316.316	6.01741	4.90293	7.76195	-39.1728	8.42309	0.27823	-0.00328448	102.623	40.9461	1	10	0.0049493	0.000637636	0	1.70698e-05	-0.000120101	5.39129e-06	64.7974	0.00845512	0.00360036	-0.00765026	-39.1123	7.75992	6.02101	4.89528	0.0998774	0.0813793	0.128834	39.1728	40946.1	50253.5	64822.9	-50.8272	0.0000000E+000	0.0000000E+000	0.0000000E+000	50.8272	0.0000000E+000	0.0000000E+000	0.0000000E+000	-50.8272	0.0000000E+000	0.0000000E+000	0.0000000E+000	-39.1728	0.0000000E+000	0.0000000E+000	0.0000000E+000	39.1728	1.22731	50.8271	-6.03893e-07	-9.13839e-07	3.94471e-10	-9.14234e-07	0.27835	84710.4	36.5664	84747
215.345	6.88822	6.36808	9.38083	-42.753	8.87255	0.278232	-0.0031952	116.059	53.4826	1	10	0.00491893	0.00052436	0	1.71857e-05	0.000147131	1.14524e-05	6.5884	0.0218408	0.0216965	-0.00250592	-42.652	9.39507	6.90991	6.36557	0.0782752	0.0723646	0.1066	42.753	53482.6	57851	78785.3	-47.247	0.0000000E+000	0.0000000E+000	0.0000000E+000	47.247	0.0000000E+000	0.0000000E+000	0.0000000E+000	-47.247	0.0000000E+000	0.0000000E+000	0.0000000E+000	-42.753	0.0000000E+000	0.0000000E+000	0.0000000E+000	42.753	1.08168	47.247	1.15847e-07	-8.89007e-07	-4.70114e-10	-8.88536e-07	0.278085	87077.9	46.0476	87031.9
146.737	8.18534	8.32619	11.6758	-45.4888	9.31851	0.278231	-0.00252189	130.267	66.2444	1	10	0.00490532	0.000420126	0	1.74481e-05	7.07791e-05	2.64253e-06	-11.3949	0.00628986	0.00616588	0.00124269	-45.4715	11.681	8.1915	8.32743	0.0600427	0.0610759	0.0856469	45.4888	66244.4	65123.8	92894.8	-44.5112	0.0000000E+000	0.0000000E+000	0.0000000E+000	44.5112	0.0000000E+000	0.0000000E+000	0.0000000E+000	-44.5112	0.0000000E+000	0.0000000E+000	0.0000000E+000	-45.4888	0.0000000E+000	0.0000000E+000	0.0000000E+000	45.4888	0.983083	44.5112	2.62426e-07	-7.01667e-07	-1.78497e-10	-7.01489e-07	0.27816	110326	28.0659	110298
100.032	10.1877	10.6688	14.7517	-46.3213	9.76979	0.278233	-0.0019081	149.131	78.0032	1	10	0.00488335	0.000331037	0	1.68834e-05	0.000318924	1.18442e-05	87.2867	0.0357791	0.00169371	-0.035739	-46.2205	14.727	10.1894	10.633	0.046816	0.0490266	0.0677889	46.3213	78003.2	74486.1	107855	-43.6787	0.0000000E+000	0.0000000E+000	0.0000000E+000	43.6787	0.0000000E+000	0.0000000E+000	0.0000000E+000	-43.6787	0.0000000E+000	0.0000000E+000	0.0000000E+000	-46.3213	0.0000000E+000	0.0000000E+000	0.0000000E+000	46.3213	0.95491	43.6787	-5.6467e-07	-5.30897e-07	-6.08538e-10	-5.30289e-07	0.277915	145817	167.142	145650
68.104	13.2698	13.285	18.7771	-45.0328	10.2325	0.27823	-0.00124595	175.908	88.0546	1	10	0.0048814	0.000259965	0	1.65454e-05	8.98672e-05	4.03742e-06	44.601	0.0155306	0.011058	-0.0109051	-44.9854	18.7772	13.2809	13.2741	0.0376363	0.0376795	0.0532563	45.0328	88054.6	87953.8	124457	-44.9672	0.0000000E+000	0.0000000E+000	0.0000000E+000	44.9672	0.0000000E+000	0.0000000E+000	0.0000000E+000	-44.9672	0.0000000E+000	0.0000000E+000	0.0000000E+000	-45.0328	0.0000000E+000	0.0000000E+000	0.0000000E+000	45.0328	0.998855	44.9672	-3.37963e-07	-3.46659e-07	-1.1197e-10	-3.46548e-07	0.27814	223308	72.1276	223236
46.4415	17.4939	15.6276	23.4576	-41.775	10.9086	0.278231	-0.00274	219.291	97.3283	1	11	0.00487559	0.000207847	0	1.60536e-05	-0.00013919	2.5036e-06	77.6231	0.0120454	0.00258183	-0.0117654	-41.7493	23.4517	17.4965	15.6158	0.0317922	0.0284005	0.0426301	41.775	97328.3	108952	146093	-48.225	0.0000000E+000	0.0000000E+000	0.0000000E+000	48.225	0.0000000E+000	0.0000000E+000	0.0000000E+000	-48.225	0.0000000E+000	0.0000000E+000	0.0000000E+000	-41.775	0.0000000E+000	0.0000000E+000	0.0000000E+000	41.775	1.11942	48.225	-4.91797e-07	-7.62353e-07	3.8138e-10	-7.62734e-07	0.27837	101544	50.799	101595
31.6296	22.7651	17.0894	28.4657	-36.895	11.3396	0.278232	-0.00291086	294.443	106.123	1	11	0.00486388	0.000170868	0	1.5868e-05	0.000223484	2.8234e-06	61.2963	0.0165238	0.00793607	-0.0144933	-36.862	28.4633	22.773	17.0749	0.0280948	0.0210903	0.03513	36.895	106123	141369	176769	-53.105	0.0000000E+000	0.0000000E+000	0.0000000E+000	53.105	0.0000000E+000	0.0000000E+000	0.0000000E+000	-53.105	0.0000000E+000	0.0000000E+000	0.0000000E+000	-36.895	0.0000000E+000	0.0000000E+000	0.0000000E+000	36.895	1.33212	53.105	-1.85619e-07	-8.09894e-07	-6.5053e-10	-8.09244e-07	0.278008	95584	76.7757	95507.2
21.5517	28.5	17.2627	33.3204	-31.2037	11.7604	0.278234	-0.00303519	427.789	114.822	1	11	0.00487105	0.000146188	0	1.54696e-05	-0.000291894	9.6358e-06	1.17005	0.0659137	0.0658999	-0.00134595	-31.1431	33.3761	28.5659	17.2613	0.0256699	0.0155485	0.0300116	31.2037	114822	189567	221630	-58.7963	0.0000000E+000	0.0000000E+000	0.0000000E+000	58.7963	0.0000000E+000	0.0000000E+000	0.0000000E+000	-58.7963	0.0000000E+000	0.0000000E+000	0.0000000E+000	-31.2037	0.0000000E+000	0.0000000E+000	0.0000000E+000	31.2037	1.65096	58.7963	-3.98416e-07	-8.44494e-07	8.85953e-10	-8.4538e-07	0.278526	91669.5	96.1699	91765.7
14.6852	33.418	15.8457	36.9845	-25.3688	12.2212	0.278238	-0.00215225	683.958	125.549	1	11	0.00480655	0.000129961	0	1.48019e-05	3.2603e-05	4.90884e-05	-37.1345	0.377715	0.301122	0.228022	-25.4869	37.3543	33.7191	16.0737	0.024431	0.0115844	0.0270384	25.3688	125549	264779	293037	-64.6312	0.0000000E+000	0.0000000E+000	0.0000000E+000	64.6312	0.0000000E+000	0.0000000E+000	0.0000000E+000	-64.6312	0.0000000E+000	0.0000000E+000	0.0000000E+000	-25.3688	0.0000000E+000	0.0000000E+000	0.0000000E+000	25.3688	2.10896	64.6312	-6.67739e-07	-5.98837e-07	-7.01697e-11	-5.98767e-07	0.278206	129278	15.1484	129263
10.0032	38.0567	14.325	40.6635	-20.6269	12.6718	0.278238	-0.00243552	1110.67	137.837	1	11	0.00486553	0.000119654	0	1.42218e-05	0.000242572	8.79332e-06	-8.48739	0.0734899	0.072685	0.0108465	-20.6052	40.7353	38.1294	14.3358	0.0230156	0.00866335	0.0245921	20.6269	137837	366188	391270	-69.3731	0.0000000E+000	0.0000000E+000	0.0000000E+000	69.3731	0.0000000E+000	0.0000000E+000	0.0000000E+000	-69.3731	0.0000000E+000	0.0000000E+000	0.0000000E+000	-20.6269	0.0000000E+000	0.0000000E+000	0.0000000E+000	20.6269	2.65666	69.3731	-5.80114e-07	-6.77655e-07	-5.90787e-10	-6.77064e-07	0.277996	114242	99.5976	114142
6.81719	41.52	12.2395	43.2865	-16.4248	13.0115	0.278225	-0.00267673	1907.44	152.502	1	11	0.00486932	0.00011249	0	1.37371e-05	3.2603e-05	1.08604e-05	-3.0823	0.0965449	0.0964053	0.00519126	-16.3953	43.3804	41.6165	12.2447	0.0221591	0.0065322	0.0231019	16.4248	152502	517330	539340	-73.5752	0.0000000E+000	0.0000000E+000	0.0000000E+000	73.5752	0.0000000E+000	0.0000000E+000	0.0000000E+000	-73.5752	0.0000000E+000	0.0000000E+000	0.0000000E+000	-16.4248	0.0000000E+000	0.0000000E+000	0.0000000E+000	16.4248	3.39229	73.5752	-4.84693e-07	-7.44732e-07	-8.72693e-11	-7.44645e-07	0.278192	103942	12.1802	103930
4.63925	43.9026	10.426	45.1236	-13.3591	13.4955	0.278243	-0.00219207	3290.45	175.664	1	11	0.0048546	0.000107584	0	1.46816e-05	0.000204395	5.96475e-06	9.36487	0.0554425	0.0547036	-0.00902166	-13.332	45.1748	43.9573	10.417	0.0215617	0.00512047	0.0221613	13.3591	175664	739699	760271	-76.6409	0.0000000E+000	0.0000000E+000	0.0000000E+000	76.6409	0.0000000E+000	0.0000000E+000	0.0000000E+000	-76.6409	0.0000000E+000	0.0000000E+000	0.0000000E+000	-13.3591	0.0000000E+000	0.0000000E+000	0.0000000E+000	13.3591	4.21088	76.6409	9.44525e-07	-6.09929e-07	-4.4805e-10	-6.09481e-07	0.278039	126931	93.2429	126838
3.1604	46.1391	8.86677	46.9833	-10.8782	14.1884	0.278239	-0.00188777	5679.54	202.282	1	11	0.00486149	0.000103473	0	1.45092e-05	0.000147131	6.08898e-06	9.63082	0.0588463	0.058017	-0.00984494	-10.8531	47.0385	46.1971	8.85693	0.0209017	0.00401678	0.0212841	10.8782	202282	1.05259e+06	1.07185e+06	-79.1218	0.0000000E+000	0.0000000E+000	0.0000000E+000	79.1218	0.0000000E+000	0.0000000E+000	0.0000000E+000	-79.1218	0.0000000E+000	0.0000000E+000	0.0000000E+000	-10.8782	0.0000000E+000	0.0000000E+000	0.0000000E+000	10.8782	5.20359	79.1218	-1.72352e-07	-5.25252e-07	-2.7775e-10	-5.24974e-07	0.278092	147390	77.9392	147312
2.15577	47.7493	7.63832	48.3564	-9.08843	15.192	0.278241	-0.00136413	9665.42	241.161	1	11	0.00485994	0.000100503	0	1.25907e-05	7.07791e-05	2.7951e-06	20.9547	0.0278112	0.0259719	-0.0099461	-9.07195	48.3805	47.7753	7.62837	0.0204202	0.00326655	0.0206798	9.08843	241161	1.50757e+06	1.52674e+06	-80.9116	0.0000000E+000	0.0000000E+000	0.0000000E+000	80.9116	0.0000000E+000	0.0000000E+000	0.0000000E+000	-80.9116	0.0000000E+000	0.0000000E+000	0.0000000E+000	-9.08843	0.0000000E+000	0.0000000E+000	0.0000000E+000	9.08843	6.25129	80.9116	-1.91857e-06	-3.79556e-07	-9.65517e-11	-3.7946e-07	0.27817	203970	51.886	203918
1.46631	49.1658	6.61498	49.6088	-7.6628	17.3815	0.278254	-0.00124445	16408.4	291.746	1	12	0.00486384	9.80437e-05	0	9.6034e-06	-0.000120101	2.44474e-06	-90.7021	0.0249352	-0.000305547	0.0249333	-7.69139	49.6119	49.1655	6.63992	0.0199777	0.00268788	0.0201577	7.6628	291746	2.1684e+06	2.18794e+06	-82.3372	0.0000000E+000	0.0000000E+000	0.0000000E+000	82.3372	0.0000000E+000	0.0000000E+000	0.0000000E+000	-82.3372	0.0000000E+000	0.0000000E+000	0.0000000E+000	-7.6628	0.0000000E+000	0.0000000E+000	0.0000000E+000	7.6628	7.4325	82.3372	-2.98727e-06	-3.46275e-07	1.49461e-10	-3.46424e-07	0.278374	223595	96.5093	223692
1.00006	50.3975	5.88453	50.7399	-6.65982	19.512	0.278254	-0.0013462	27044.6	363.751	1	12	0.0048637	9.58555e-05	0	9.25921e-06	0.000338012	4.06366e-06	-8.02741	0.0423936	0.0419782	0.00592013	-6.66097	50.7823	50.4395	5.89045	0.0195754	0.00228566	0.0197083	6.65982	363751	3.11532e+06	3.13648e+06	-83.3402	0.0000000E+000	0.0000000E+000	0.0000000E+000	83.3402	0.0000000E+000	0.0000000E+000	0.0000000E+000	-83.3402	0.0000000E+000	0.0000000E+000	0.0000000E+000	-6.65982	0.0000000E+000	0.0000000E+000	0.0000000E+000	6.65982	8.56442	83.3402	-3.44187e-07	-3.74586e-07	-4.55033e-10	-3.74131e-07	0.277916	206695	251.085	206444
0.681362	51.4687	5.35175	51.7462	-5.93632	22.624	0.278257	-0.00149332	43646.1	466.854	1	12	0.00486827	9.40797e-05	0	1.11446e-05	0.000128043	2.64982e-06	-14.4835	0.0281657	0.0272706	0.00704429	-5.94096	51.7741	51.496	5.3588	0.0192215	0.00199866	0.0193251	5.93632	466854	4.48981e+06	4.51402e+06	-84.0637	0.0000000E+000	0.0000000E+000	0.0000000E+000	84.0637	0.0000000E+000	0.0000000E+000	0.0000000E+000	-84.0637	0.0000000E+000	0.0000000E+000	0.0000000E+000	-5.93632	0.0000000E+000	0.0000000E+000	0.0000000E+000	5.93632	9.61717	84.0637	1.88539e-06	-4.15528e-07	-1.9121e-10	-4.15337e-07	0.278129	186334	85.7438	186248
0.464091	52.4053	5.04043	52.6471	-5.49391	27.1807	0.278246	-0.00150742	68037.7	623.642	1	12	0.0048664	9.24343e-05	0	1.51871e-05	-0.000120101	2.3968e-06	80.5369	0.0259297	0.00426315	-0.0255769	-5.46575	52.6489	52.4096	5.01485	0.0189071	0.00181852	0.0189944	5.49391	623642	6.484e+06	6.51392e+06	-84.5061	0.0000000E+000	0.0000000E+000	0.0000000E+000	84.5061	0.0000000E+000	0.0000000E+000	0.0000000E+000	-84.5061	0.0000000E+000	0.0000000E+000	0.0000000E+000	-5.49391	0.0000000E+000	0.0000000E+000	0.0000000E+000	5.49391	10.397	84.5061	4.04254e-06	-4.19433e-07	1.81043e-10	-4.19614e-07	0.278366	184584	79.6735	184664
0.316193	53.3256	4.87146	53.5477	-5.21966	33.8542	0.278245	-0.00118817	103326	855.156	1	12	0.00486306	9.08173e-05	0	1.89049e-05	0.000108955	3.56102e-06	11.9057	0.0392108	0.0383673	-0.00808928	-5.20731	53.5852	53.364	4.86337	0.0185975	0.00169894	0.0186749	5.21966	855156	9.361e+06	9.39998e+06	-84.7803	0.0000000E+000	0.0000000E+000	0.0000000E+000	84.7803	0.0000000E+000	0.0000000E+000	0.0000000E+000	-84.7803	0.0000000E+000	0.0000000E+000	0.0000000E+000	-5.21966	0.0000000E+000	0.0000000E+000	0.0000000E+000	5.21966	10.9465	84.7803	3.71776e-06	-3.30602e-07	-1.29457e-10	-3.30473e-07	0.278136	234179	91.6999	234087
0.215268	54.2583	5.03686	54.4916	-5.30363	43.6477	0.278245	-0.000782944	146785	1254.13	1	12	0.00486394	8.92605e-05	0	1.76847e-05	3.2603e-05	3.18128e-06	7.11798	0.0356404	0.0353657	-0.0044163	-5.29558	54.5264	54.2937	5.03244	0.0182729	0.00169629	0.0183515	5.30363	1.25413e+06	1.35098e+07	1.35679e+07	-84.6964	0.0000000E+000	0.0000000E+000	0.0000000E+000	84.6964	0.0000000E+000	0.0000000E+000	0.0000000E+000	-84.6964	0.0000000E+000	0.0000000E+000	0.0000000E+000	-5.30363	0.0000000E+000	0.0000000E+000	0.0000000E+000	5.30363	10.7722	84.6964	-1.22025e-06	-2.1785e-07	-2.55263e-11	-2.17825e-07	0.278213	355383	41.6416	355342
0.146929	55.179	5.48943	55.4513	-5.68132	57.9852	0.278243	-0.00051385	197327	1933.82	1	12	0.00486818	8.77919e-05	0	6.11007e-06	-0.000196454	6.70563e-06	-18.6407	0.0763811	0.0723742	0.0244139	-5.699	55.5258	55.2513	5.51384	0.0179452	0.00178527	0.0180338	5.68132	1.93382e+06	1.94385e+07	1.95344e+07	-84.3187	0.0000000E+000	0.0000000E+000	0.0000000E+000	84.3187	0.0000000E+000	0.0000000E+000	0.0000000E+000	-84.3187	0.0000000E+000	0.0000000E+000	0.0000000E+000	-5.68132	0.0000000E+000	0.0000000E+000	0.0000000E+000	5.68132	10.0519	84.3187	-1.15746e-05	-1.42975e-07	1.00948e-10	-1.43076e-07	0.27844	541487	382.317	541869
0.0999041	56.0577	6.07138	56.3856	-6.18138	79.0624	0.278241	-0.000330013	262391	3042.21	1	12	0.00486183	8.62247e-05	0	-1.91377e-05	-8.19253e-05	3.23477e-06	8.06083	0.0375156	0.037145	-0.0052606	-6.172	56.4219	56.0949	6.06612	0.0176319	0.00190964	0.017735	6.18138	3.0422e+06	2.8089e+07	2.82533e+07	-83.8186	0.0000000E+000	0.0000000E+000	0.0000000E+000	83.8186	0.0000000E+000	0.0000000E+000	0.0000000E+000	-83.8186	0.0000000E+000	0.0000000E+000	0.0000000E+000	-6.18138	0.0000000E+000	0.0000000E+000	0.0000000E+000	6.18138	9.23311	83.8186	-2.52477e-05	-9.18232e-08	2.70364e-11	-9.18503e-08	0.278323	843122	248.249	843370
0.0680626	57.1673	7.01214	57.5957	-6.99296	109.99	0.278242	-0.000322634	333473	4942.89	1	12	0.00486091	8.4397e-05	0	-5.47465e-05	-0.000177366	3.1344e-06	61.663	0.0371387	0.0176281	-0.0326884	-6.95856	57.6093	57.1849	6.97945	0.0172332	0.00211383	0.0173624	6.99296	4.94289e+06	4.02975e+07	4.05995e+07	-83.007	0.0000000E+000	0.0000000E+000	0.0000000E+000	83.007	0.0000000E+000	0.0000000E+000	0.0000000E+000	-83.007	0.0000000E+000	0.0000000E+000	0.0000000E+000	-6.99296	0.0000000E+000	0.0000000E+000	0.0000000E+000	6.99296	8.15262	83.007	-3.56089e-05	-8.97705e-08	5.72243e-11	-8.98277e-08	0.27842	862407	549.742	862957
0.0464052	58.6672	8.36432	59.2604	-8.11411	155.341	0.278241	-0.000772061	410037	8168.73	1	12	0.00486276	8.20575e-05	0	-9.25591e-05	0.000108955	3.36867e-06	-15.1575	0.0410526	0.0396244	0.0107342	-8.11897	59.3012	58.7068	8.37505	0.0167057	0.00238178	0.0168747	8.11411	8.16873e+06	5.72953e+07	5.78747e+07	-81.8859	0.0000000E+000	0.0000000E+000	0.0000000E+000	81.8859	0.0000000E+000	0.0000000E+000	0.0000000E+000	-81.8859	0.0000000E+000	0.0000000E+000	0.0000000E+000	-8.11411	0.0000000E+000	0.0000000E+000	0.0000000E+000	8.11411	7.01398	81.8859	-3.78126e-05	-2.14819e-07	-8.412e-11	-2.14735e-07	0.278132	360388	141.123	360246
0.0315922	60.306	10.4203	61.1996	-9.80337	221.947	0.278236	-0.00103339	483459	14016	1	12	0.00486621	7.95137e-05	0	-0.000106089	5.16911e-05	4.5924e-06	-36.894	0.0577561	0.0461903	0.0346731	-9.82797	61.251	60.3522	10.455	0.0161014	0.00278217	0.01634	9.80337	1.4016e+07	8.11154e+07	8.23174e+07	-80.1966	0.0000000E+000	0.0000000E+000	0.0000000E+000	80.1966	0.0000000E+000	0.0000000E+000	0.0000000E+000	-80.1966	0.0000000E+000	0.0000000E+000	0.0000000E+000	-9.80337	0.0000000E+000	0.0000000E+000	0.0000000E+000	9.80337	5.78735	80.1966	-1.35297e-05	-2.87527e-07	-5.34172e-11	-2.87474e-07	0.278184	269245	50.0207	269195
0.0215268	61.9263	12.8697	63.2495	-11.7402	319.686	0.278234	-0.00098882	574477	23784.5	1	12	0.00486477	7.69139e-05	0	-6.33897e-05	0.000128043	6.32808e-06	55.2851	0.0822749	0.046855	-0.0676296	-11.6717	63.2817	61.9732	12.8021	0.0154796	0.00321702	0.0158104	11.7402	2.37845e+07	1.14446e+08	1.16892e+08	-78.2598	0.0000000E+000	0.0000000E+000	0.0000000E+000	78.2598	0.0000000E+000	0.0000000E+000	0.0000000E+000	-78.2598	0.0000000E+000	0.0000000E+000	0.0000000E+000	-11.7402	0.0000000E+000	0.0000000E+000	0.0000000E+000	11.7402	4.8118	78.2598	4.26992e-05	-2.75123e-07	-1.26612e-10	-2.74997e-07	0.278106	281380	129.491	281250
0.0146812	63.931	15.8996	65.8785	-13.9661	462.988	0.278234	-0.000581452	681824	39715.5	1	12	0.00486449	7.38404e-05	0	5.38738e-05	-8.19253e-05	2.90592e-06	-1.57567	0.0393541	0.0393392	0.00108213	-13.9588	65.9169	63.9703	15.9007	0.0147307	0.00366354	0.0151795	13.9661	3.97155e+07	1.59692e+08	1.64557e+08	-76.0339	0.0000000E+000	0.0000000E+000	0.0000000E+000	76.0339	0.0000000E+000	0.0000000E+000	0.0000000E+000	-76.0339	0.0000000E+000	0.0000000E+000	0.0000000E+000	-13.9661	0.0000000E+000	0.0000000E+000	0.0000000E+000	13.9661	4.02091	76.0339	0.000117264	-1.6178e-07	4.76357e-11	-1.61827e-07	0.278316	478515	140.898	478656
0.0100092	66.8977	20.0415	69.8352	-16.6774	673.171	0.278235	5.77924e-06	793399	65343.7	1	12	0.00486684	6.96903e-05	0	0.000219283	-5.57311e-06	3.32321e-06	-4.68319	0.0476854	0.0475262	0.00389333	-16.6693	69.8819	66.9452	20.0454	0.0137171	0.00410943	0.0143194	16.6774	6.53437e+07	2.18114e+08	2.27692e+08	-73.3226	0.0000000E+000	0.0000000E+000	0.0000000E+000	73.3226	0.0000000E+000	0.0000000E+000	0.0000000E+000	-73.3226	0.0000000E+000	0.0000000E+000	0.0000000E+000	-16.6774	0.0000000E+000	0.0000000E+000	0.0000000E+000	16.6774	3.33796	73.3226	0.00016541	1.60799e-09	-3.22083e-14	1.60802e-09	0.278241	4.81439e+07	964.332	4.81448e+07