File: txt/19502_R316_UA716_SOC00_C04.mpt
EC-Lab ASCII FILE
Nb header lines : 65

Potentio Electrochemical Impedance Spectroscopy

Run on channel : 4 (SN 66756)
User :
CE vs. WE compliance from -10 V to 10 V
Electrode connection : standard
Potential control : Ewe
Ewe ctrl range : min = -10.00 V, max = 10.00 V
Safety Limits :
	Do not start on E overload
Acquisition started on : 12/04/2025 15:14:54.157
Technique started on : 12/04/2025 15:14:55.883
Loaded Setting File :  C:\Users\Celltest\OneDrive - store-dot.com\Documents\EC-Lab\Data\@Biologic Test Protocols\anode half cell EIS SOC00.mps
Saved on :
	File : 19502_R316_UA716_SOC00_C04.mpr
	Directory : C:\Users\Celltest\OneDrive - store-dot.com\Documents\EC-Lab\Data\Charmaine\
	Host : 169.254.61.224
Device : VMP-3e (SN .003165)
Address : USB
EC-LAB for windows v11.62 (software)
Internet server v27.00 (firmware)
Command interpretor v12.03 (firmware)
Electrode material :
Initial state :
Electrolyte :
Comments :
Electrode surface area : 0.001 cm²
Characteristic mass : 0.001 g
Equivalent Weight : 0.000 g/eq.
Density : 0.000 g/cm3
Volume (V) : 0.001 cm³
Record Ece
Cycle Definition : Charge/Discharge alternance
Mode                Single sine
E (V)               0.0000
vs.                 Eoc
tE (h:m:s)          0:00:0.0000
record              0
dI                  0.000
unit dI             mA
dt (s)              0.000
fi                  100.000
unit fi             kHz
ff                  10.000
unit ff             mHz
Nd                  6
Points              per decade
spacing             Logarithmic
Va (mV)             5.0
pw                  0.10
Na                  2
corr                0
E range min (V)     -10.000
E range max (V)     10.000
I Range             Auto
Bandwidth           5
nc cycles           0
goto Ns'            0
nr cycles           0
inc. cycle          0

freq/Hz	Re(Z)/Ohm	-Im(Z)/Ohm	|Z|/Ohm	Phase(Z)/deg	time/s	<Ewe>/V	<I>/mA	Cs/µF	Cp/µF	cycle number	I Range	|Ewe|/V	|I|/A	Ns	(Q-Qo)/mA.h	<Ece>/V	|Ece|/V	Phase(Zce)/deg	|Zce|/Ohm	Re(Zce)/Ohm	-Im(Zce)/Ohm	Phase(Zwe-ce)/deg	|Zwe-ce|/Ohm	Re(Zwe-ce)/Ohm	-Im(Zwe-ce)/Ohm	Re(Y)/Ohm-1	Im(Y)/Ohm-1	|Y|/Ohm-1	Phase(Y)/deg	Re(C)/nF	Im(C)/nF	|C|/nF	Phase(C)/deg	Re(M)	Im(M)	|M|	Phase(M)/deg	Re(Permittivity)	Im(Permittivity)	|Permittivity|	Phase(Permittivity)/deg	Re(Resistivity)/Ohm.cm	Im(Resistivity)/Ohm.cm	|Resistivity|/Ohm.cm	Phase(Resistivity)/deg	Re(Conductivity)/mS/cm	Im(Conductivity)/mS/cm	|Conductivity|/mS/cm	Phase(Conductivity)/deg	Tan(Delta)	Loss Angle(Delta)/deg	dq/mA.h	Pwe/W	Pce/W	Pwe-ce/W	<Ewe-Ece>/V	Rwe/Ohm	Rce/Ohm	Rwe-ce/Ohm		Ewe-Ece/V
100004	1.1283	0.482	1.22694	-23.1318	1.72555	0.218817	-0.0122188	3.30185	0.509571	1	9	0.00465402	0.00379319	0	7.05824e-06	-0.000196903	2.77945e-05	83.6721	0.00732747	0.000807624	-0.00728283	-22.8037	1.22484	1.12911	0.474717	0.74951	0.320185	0.815036	23.1318	509.571	1192.84	1297.12	-66.8682	0.0000000E+000	0.0000000E+000	0.0000000E+000	66.8682	0.0000000E+000	0.0000000E+000	0.0000000E+000	-66.8682	0.0000000E+000	0.0000000E+000	0.0000000E+000	-23.1318	0.0000000E+000	0.0000000E+000	0.0000000E+000	23.1318	2.34087	66.8682	7.05824e-06	-2.67368e-06	2.40591e-09	-2.67609e-06	0.219014	17908.3	16.1148	17924.4
68132	1.25725	0.55781	1.37544	-23.9257	2.23252	0.218813	-0.00349123	4.18777	0.688769	1	9	0.00505844	0.0036777	0	-2.26841e-06	0.000357286	2.25917e-05	72.365	0.00614289	0.001861	-0.00585421	-23.6712	1.37478	1.25911	0.551955	0.664569	0.294852	0.727042	23.9257	688.769	1552.42	1698.35	-66.0743	0.0000000E+000	0.0000000E+000	0.0000000E+000	66.0743	0.0000000E+000	0.0000000E+000	0.0000000E+000	-66.0743	0.0000000E+000	0.0000000E+000	0.0000000E+000	-23.9257	0.0000000E+000	0.0000000E+000	0.0000000E+000	23.9257	2.2539	66.0743	-9.32665e-06	-7.63926e-07	-1.24737e-09	-7.62678e-07	0.218456	62675.1	102.338	62572.8
46420.4	1.398	0.621672	1.52999	-23.9741	2.74155	0.218814	-0.0133377	5.51506	0.910529	1	9	0.00504118	0.0032949	0	-3.53926e-06	-0.000139573	1.04085e-05	34.0349	0.00315898	0.00261784	-0.00176808	-23.8739	1.53167	1.40062	0.619904	0.597211	0.265572	0.653597	23.9741	910.529	2047.57	2240.9	-66.0259	0.0000000E+000	0.0000000E+000	0.0000000E+000	66.0259	0.0000000E+000	0.0000000E+000	0.0000000E+000	-66.0259	0.0000000E+000	0.0000000E+000	0.0000000E+000	-23.9741	0.0000000E+000	0.0000000E+000	0.0000000E+000	23.9741	2.24877	66.0259	-1.27085e-06	-2.91849e-06	1.86159e-09	-2.92035e-06	0.218954	16405.7	10.4645	16416.2
31621.1	1.55526	0.700157	1.70559	-24.2367	3.24853	0.218819	-0.00927232	7.18865	1.2114	1	9	0.00508644	0.00298221	0	-4.7312e-06	-0.000311563	1.31014e-05	10.7838	0.00439317	0.00431559	-0.00082198	-24.1521	1.70919	1.55957	0.699335	0.534628	0.240683	0.586307	24.2367	1211.4	2690.88	2950.99	-65.7634	0.0000000E+000	0.0000000E+000	0.0000000E+000	65.7634	0.0000000E+000	0.0000000E+000	0.0000000E+000	-65.7634	0.0000000E+000	0.0000000E+000	0.0000000E+000	-24.2367	0.0000000E+000	0.0000000E+000	0.0000000E+000	24.2367	2.2213	65.7634	-1.19195e-06	-2.02896e-06	2.88891e-09	-2.03185e-06	0.21913	23599.1	33.6014	23632.7
21544.7	1.71841	0.781918	1.88794	-24.4667	3.63151	0.218805	-0.0134123	9.44754	1.62056	1	9	0.0051349	0.00271984	0	1.59668e-06	-0.000273343	3.50494e-05	14.5187	0.0128865	0.012475	-0.00323061	-24.222	1.89797	1.73088	0.778688	0.482114	0.219374	0.529678	24.4667	1620.56	3561.47	3912.84	-65.5333	0.0000000E+000	0.0000000E+000	0.0000000E+000	65.5333	0.0000000E+000	0.0000000E+000	0.0000000E+000	-65.5333	0.0000000E+000	0.0000000E+000	0.0000000E+000	-24.4667	0.0000000E+000	0.0000000E+000	0.0000000E+000	24.4667	2.19768	65.5333	6.32789e-06	-2.93469e-06	3.66616e-09	-2.93835e-06	0.219078	16313.7	20.38	16334.1
14678.6	1.89962	0.87105	2.08981	-24.6333	4.01452	0.218816	-0.0140837	12.4478	2.16255	1	9	0.00500924	0.00239699	0	4.0042e-06	-8.22432e-05	6.24508e-06	-35.7679	0.00260539	0.00211399	0.00152286	-24.647	2.09236	1.90174	0.872573	0.434965	0.199448	0.478513	24.6333	2162.55	4716.18	5188.35	-65.3667	0.0000000E+000	0.0000000E+000	0.0000000E+000	65.3667	0.0000000E+000	0.0000000E+000	0.0000000E+000	-65.3667	0.0000000E+000	0.0000000E+000	0.0000000E+000	-24.6333	0.0000000E+000	0.0000000E+000	0.0000000E+000	24.6333	2.18084	65.3667	2.40751e-06	-3.08174e-06	1.15829e-09	-3.0829e-06	0.218899	15536.9	5.83961	15542.7
10002.2	2.10289	0.971616	2.3165	-24.7987	4.27351	0.218817	-0.00889938	16.3768	2.88106	1	9	0.0045128	0.00194811	0	2.10935e-06	-0.000521772	1.02125e-05	-27.5062	0.00524224	0.00464966	0.0024211	-24.8049	2.32174	2.10754	0.974037	0.391878	0.181063	0.431685	24.7987	2881.06	6235.54	6868.95	-65.2012	0.0000000E+000	0.0000000E+000	0.0000000E+000	65.2012	0.0000000E+000	0.0000000E+000	0.0000000E+000	-65.2012	0.0000000E+000	0.0000000E+000	0.0000000E+000	-24.7987	0.0000000E+000	0.0000000E+000	0.0000000E+000	24.7987	2.16432	65.2012	-1.89485e-06	-1.94734e-06	4.64345e-09	-1.95198e-06	0.219339	24587.9	58.6302	24646.5
6810.42	2.33436	1.10216	2.58148	-25.2741	4.65655	0.218813	-0.0134869	21.2032	3.86505	1	9	0.0048488	0.00187831	0	3.65304e-08	-0.000139573	0.000151162	-38.567	0.0804778	0.0629239	0.0501722	-25.6727	2.65986	2.39729	1.15233	0.350294	0.16539	0.387375	25.2741	3865.05	8186.14	9052.7	-64.7259	0.0000000E+000	0.0000000E+000	0.0000000E+000	64.7259	0.0000000E+000	0.0000000E+000	0.0000000E+000	-64.7259	0.0000000E+000	0.0000000E+000	0.0000000E+000	-25.2741	0.0000000E+000	0.0000000E+000	0.0000000E+000	25.2741	2.11799	64.7259	-2.07282e-06	-2.95112e-06	1.88241e-09	-2.953e-06	0.218953	16224.1	10.3488	16234.4
4646	2.54885	1.24237	2.83551	-25.9857	4.92061	0.218794	-0.0288161	27.5734	5.29332	1	9	0.00468013	0.00165054	0	-1.46116e-06	-0.000158683	1.85725e-05	34.7365	0.0112523	0.00924696	-0.00641163	-25.7877	2.84103	2.5581	1.23596	0.317016	0.154521	0.35267	25.9857	5293.32	10859.8	12081.2	-64.0143	0.0000000E+000	0.0000000E+000	0.0000000E+000	64.0143	0.0000000E+000	0.0000000E+000	0.0000000E+000	-64.0143	0.0000000E+000	0.0000000E+000	0.0000000E+000	-25.9857	0.0000000E+000	0.0000000E+000	0.0000000E+000	25.9857	2.05161	64.0143	-1.49769e-06	-6.3048e-06	4.57263e-09	-6.30937e-06	0.218953	7592.76	5.50674	7598.27
3163.08	2.83592	1.45159	3.18583	-27.106	5.29467	0.218591	-0.0590643	34.6631	7.19627	1	9	0.00460678	0.00144602	0	-6.55053e-06	-0.000388002	3.24821e-06	13.7871	0.00224631	0.00218159	-0.000535327	-27.0796	3.18753	2.8381	1.45105	0.279414	0.14302	0.31389	27.106	7196.27	14059.1	15793.8	-62.894	0.0000000E+000	0.0000000E+000	0.0000000E+000	62.894	0.0000000E+000	0.0000000E+000	0.0000000E+000	-62.894	0.0000000E+000	0.0000000E+000	0.0000000E+000	-27.106	0.0000000E+000	0.0000000E+000	0.0000000E+000	27.106	1.95367	62.894	-5.08937e-06	-1.29109e-05	2.29171e-08	-1.29338e-05	0.218979	3700.9	6.56916	3707.47
2155.69	3.12289	1.68232	3.54721	-28.3116	5.7458	0.218756	0.0335822	43.8859	9.8712	1	9	0.00455036	0.0012828	0	-3.86303e-06	5.15265e-05	9.89692e-06	-45.6581	0.00771508	0.00539237	0.00551768	-28.3487	3.55457	3.12829	1.68784	0.24819	0.133701	0.281912	28.3116	9871.2	18323.9	20813.6	-61.6884	0.0000000E+000	0.0000000E+000	0.0000000E+000	61.6884	0.0000000E+000	0.0000000E+000	0.0000000E+000	-61.6884	0.0000000E+000	0.0000000E+000	0.0000000E+000	-28.3116	0.0000000E+000	0.0000000E+000	0.0000000E+000	28.3116	1.8563	61.6884	2.6875e-06	7.3463e-06	1.73037e-09	7.34457e-06	0.218704	6514.03	1.53434	6512.5
1468.59	3.47845	1.9686	3.99687	-29.5074	6.44311	0.218739	-0.00204637	55.0505	13.3548	1	10	0.00466624	0.00116747	0	-2.15766e-06	0.000166186	4.97147e-06	104.138	0.00425832	-0.00104016	-0.00412932	-29.4632	3.99394	3.47741	1.96448	0.217743	0.12323	0.250196	29.5074	13354.8	23597.4	27114.4	-60.4926	0.0000000E+000	0.0000000E+000	0.0000000E+000	60.4926	0.0000000E+000	0.0000000E+000	0.0000000E+000	-60.4926	0.0000000E+000	0.0000000E+000	0.0000000E+000	-29.5074	0.0000000E+000	0.0000000E+000	0.0000000E+000	29.5074	1.76696	60.4926	1.70537e-06	-4.4762e-07	-3.40078e-10	-4.4728e-07	0.218573	106891	81.2104	106810
1000.32	3.85015	2.35596	4.51378	-31.463	6.89382	0.218737	-0.00208367	67.5325	18.3979	1	10	0.00460556	0.00102033	0	-3.19693e-06	-2.49133e-05	3.99838e-06	67.5525	0.0039187	0.0014963	-0.00362178	-31.4139	4.51317	3.85165	2.35234	0.188972	0.115634	0.221544	31.463	18397.9	30066.1	35248.5	-58.537	0.0000000E+000	0.0000000E+000	0.0000000E+000	58.537	0.0000000E+000	0.0000000E+000	0.0000000E+000	-58.537	0.0000000E+000	0.0000000E+000	0.0000000E+000	-31.463	0.0000000E+000	0.0000000E+000	0.0000000E+000	31.463	1.63422	58.537	-1.03927e-06	-4.55776e-07	5.19111e-11	-4.55828e-07	0.218762	104977	11.9565	104989
681.09	4.26976	2.85591	5.13683	-33.7773	7.34452	0.218734	-0.00318034	81.8224	25.2912	1	10	0.00456803	0.00088927	0	-3.0613e-06	-6.31332e-05	9.53559e-06	102.891	0.0107229	-0.00239224	-0.0104527	-33.6951	5.12904	4.26737	2.84545	0.161813	0.108231	0.194672	33.7773	25291.2	37811.9	45490.4	-56.2227	0.0000000E+000	0.0000000E+000	0.0000000E+000	56.2227	0.0000000E+000	0.0000000E+000	0.0000000E+000	-56.2227	0.0000000E+000	0.0000000E+000	0.0000000E+000	-33.7773	0.0000000E+000	0.0000000E+000	0.0000000E+000	33.7773	1.49506	56.2227	1.35626e-07	-6.9565e-07	2.00785e-10	-6.9585e-07	0.218797	68776.9	19.8511	68796.7
463.961	4.75077	3.53603	5.92228	-36.6606	7.79635	0.218735	-0.00233361	97.0114	34.5842	1	10	0.00453455	0.000765678	0	-3.55482e-06	-0.000177793	8.1154e-06	-114.439	0.010599	-0.00438502	0.00964936	-36.7607	5.92453	4.74639	3.54568	0.135452	0.100818	0.168854	36.6606	34584.2	46465	57922.9	-53.3394	0.0000000E+000	0.0000000E+000	0.0000000E+000	53.3394	0.0000000E+000	0.0000000E+000	0.0000000E+000	-53.3394	0.0000000E+000	0.0000000E+000	0.0000000E+000	-36.6606	0.0000000E+000	0.0000000E+000	0.0000000E+000	36.6606	1.34353	53.3394	-4.93511e-07	-5.10443e-07	4.149e-10	-5.10858e-07	0.218913	93732.6	76.1879	93808.8
316.316	5.36158	4.45966	6.97389	-39.753	8.24408	0.218726	-0.00387044	112.823	46.1372	1	10	0.00452155	0.000648354	0	-3.75858e-06	0.000127966	5.30587e-06	48.4679	0.00818361	0.00542606	-0.00612612	-39.6858	6.97414	5.367	4.45353	0.110241	0.0916963	0.143392	39.753	46137.2	55468	72148	-50.247	0.0000000E+000	0.0000000E+000	0.0000000E+000	50.247	0.0000000E+000	0.0000000E+000	0.0000000E+000	-50.247	0.0000000E+000	0.0000000E+000	0.0000000E+000	-39.753	0.0000000E+000	0.0000000E+000	0.0000000E+000	39.753	1.20224	50.247	-2.03762e-07	-8.46564e-07	-4.95286e-10	-8.46069e-07	0.218598	56511.8	33.0625	56478.7
215.345	6.18006	5.70765	8.41251	-42.7243	8.90852	0.218729	-0.00319901	129.488	59.6063	1	10	0.00500226	0.000594621	0	-4.31398e-06	-6.31332e-05	1.02588e-05	-52.8103	0.0172526	0.0104284	0.0137441	-42.7448	8.4295	6.19049	5.72139	0.0873255	0.0806503	0.118871	42.7243	59606.3	64539.8	87853.8	-47.2757	0.0000000E+000	0.0000000E+000	0.0000000E+000	47.2757	0.0000000E+000	0.0000000E+000	0.0000000E+000	-47.2757	0.0000000E+000	0.0000000E+000	0.0000000E+000	-42.7243	0.0000000E+000	0.0000000E+000	0.0000000E+000	42.7243	1.08277	47.2757	-5.55401e-07	-6.99717e-07	2.01964e-10	-6.99919e-07	0.218792	68374	19.7352	68393.7
146.737	7.37933	7.35605	10.4195	-44.9095	9.35449	0.218725	-0.00537371	147.447	73.4903	1	10	0.00499429	0.000479321	0	-5.20837e-06	1.33066e-05	6.39252e-06	-17.2162	0.0133366	0.0127391	0.00394734	-44.8754	10.4313	7.39207	7.36	0.0679709	0.0677565	0.0959739	44.9095	73490.3	73722.9	104096	-45.0905	0.0000000E+000	0.0000000E+000	0.0000000E+000	45.0905	0.0000000E+000	0.0000000E+000	0.0000000E+000	-45.0905	0.0000000E+000	0.0000000E+000	0.0000000E+000	-44.9095	0.0000000E+000	0.0000000E+000	0.0000000E+000	44.9095	1.00317	45.0905	-8.94389e-07	-1.17537e-06	-7.15058e-11	-1.17529e-06	0.218712	40702.9	2.47624	40700.4
100.032	9.19136	9.3123	13.0843	-45.3745	9.80581	0.218734	-0.00372497	170.854	86.5434	1	10	0.0049892	0.000381311	0	-5.27091e-06	1.33066e-05	1.00366e-05	94.3119	0.0263213	-0.00197899	-0.0262468	-45.2998	13.0643	9.18939	9.28605	0.0536879	0.0543942	0.0764272	45.3745	86543.4	85419.5	121599	-44.6255	0.0000000E+000	0.0000000E+000	0.0000000E+000	44.6255	0.0000000E+000	0.0000000E+000	0.0000000E+000	-44.6255	0.0000000E+000	0.0000000E+000	0.0000000E+000	-45.3745	0.0000000E+000	0.0000000E+000	0.0000000E+000	45.3745	0.987014	44.6255	-6.25417e-08	-8.14777e-07	-4.95667e-11	-8.14728e-07	0.21872	58720.9	3.57227	58717.3
68.104	11.9043	11.4572	16.5221	-43.9035	10.2685	0.218738	-0.00153909	203.972	98.0832	1	10	0.00499033	0.00030204	0	-5.24989e-06	3.24166e-05	8.37661e-06	79.2484	0.0277335	0.00517371	-0.0272466	-43.8229	16.507	11.9095	11.4299	0.0436088	0.0419708	0.060525	43.9035	98083.2	101911	141443	-46.0965	0.0000000E+000	0.0000000E+000	0.0000000E+000	46.0965	0.0000000E+000	0.0000000E+000	0.0000000E+000	-46.0965	0.0000000E+000	0.0000000E+000	0.0000000E+000	-43.9035	0.0000000E+000	0.0000000E+000	0.0000000E+000	43.9035	1.03903	46.0965	2.10209e-08	-3.36658e-07	-4.9892e-11	-3.36608e-07	0.218706	142122	21.0621	142101
46.4415	15.7778	13.354	20.6705	-40.244	10.9457	0.218764	0.0113443	256.626	107.109	1	11	0.00499713	0.000241752	0	-3.60398e-06	-8.22432e-05	2.93006e-06	-87.0664	0.0121201	0.000620296	0.0121042	-40.2685	20.6788	15.7784	13.3661	0.0369271	0.0312545	0.0483782	40.244	107109	126549	165792	-49.756	0.0000000E+000	0.0000000E+000	0.0000000E+000	49.756	0.0000000E+000	0.0000000E+000	0.0000000E+000	-49.756	0.0000000E+000	0.0000000E+000	0.0000000E+000	-40.244	0.0000000E+000	0.0000000E+000	0.0000000E+000	40.244	1.1815	49.756	1.6459e-06	2.48173e-06	-9.32995e-10	2.48266e-06	0.218846	19284	7.24971	19291.2
31.6296	20.3466	14.3144	24.8775	-35.1275	11.3755	0.21876	0.0110962	351.523	116.383	1	11	0.0049829	0.000200298	0	-2.70663e-06	-0.000273343	6.81278e-06	85.751	0.0340132	0.00252008	-0.0339198	-35.0602	24.86	20.3491	14.2805	0.0328761	0.0231293	0.040197	35.1275	116383	165427	202265	-54.8725	0.0000000E+000	0.0000000E+000	0.0000000E+000	54.8725	0.0000000E+000	0.0000000E+000	0.0000000E+000	-54.8725	0.0000000E+000	0.0000000E+000	0.0000000E+000	-35.1275	0.0000000E+000	0.0000000E+000	0.0000000E+000	35.1275	1.42141	54.8725	8.97352e-07	2.42742e-06	-3.03308e-09	2.43045e-06	0.219033	19714.8	24.6338	19739.4
21.5517	25.1737	14.0015	28.8056	-29.0826	11.7965	0.218757	0.0108899	527.428	124.612	1	11	0.00497888	0.000172844	0	-1.56873e-06	-0.000120463	7.87505e-06	-16.5	0.0455615	0.0436853	0.0129401	-29.0629	28.85	25.2174	14.0145	0.0303386	0.0168742	0.0347155	29.0826	124612	224044	256367	-60.9174	0.0000000E+000	0.0000000E+000	0.0000000E+000	60.9174	0.0000000E+000	0.0000000E+000	0.0000000E+000	-60.9174	0.0000000E+000	0.0000000E+000	0.0000000E+000	-29.0826	0.0000000E+000	0.0000000E+000	0.0000000E+000	29.0826	1.79793	60.9174	1.1379e-06	2.38224e-06	-1.31183e-09	2.38356e-06	0.218877	20088	11.0619	20099
14.6852	29.5681	12.7776	32.2109	-23.3712	12.2572	0.218766	0.0113048	848.186	133.471	1	11	0.00500794	0.000155474	0	-7.19984e-07	-2.49133e-05	1.77674e-05	136.314	0.114279	-0.0826396	-0.0789328	-23.3004	32.1037	29.4855	12.6987	0.0284983	0.0123153	0.0310454	23.3712	133471	308859	336464	-66.6288	0.0000000E+000	0.0000000E+000	0.0000000E+000	66.6288	0.0000000E+000	0.0000000E+000	0.0000000E+000	-66.6288	0.0000000E+000	0.0000000E+000	0.0000000E+000	-23.3712	0.0000000E+000	0.0000000E+000	0.0000000E+000	23.3712	2.31405	66.6288	8.48747e-07	2.47311e-06	-2.8164e-10	2.47339e-06	0.218791	19351.6	2.20378	19353.8
10.0032	32.7566	10.757	34.4776	-18.1797	12.7078	0.218768	0.011038	1479.08	143.978	1	11	0.00498414	0.000144562	0	1.78992e-06	-0.000177793	7.01567e-06	-6.95488	0.0485307	0.0481736	0.00587647	-18.164	34.5252	32.8047	10.7628	0.0275565	0.00904931	0.0290043	18.1797	143978	438435	461471	-71.8203	0.0000000E+000	0.0000000E+000	0.0000000E+000	71.8203	0.0000000E+000	0.0000000E+000	0.0000000E+000	-71.8203	0.0000000E+000	0.0000000E+000	0.0000000E+000	-18.1797	0.0000000E+000	0.0000000E+000	0.0000000E+000	18.1797	3.04515	71.8203	2.5099e-06	2.41477e-06	-1.96249e-09	2.41674e-06	0.218946	19819.5	16.1073	19835.6
6.81719	35.1327	8.77602	36.2122	-14.0252	13.0475	0.218779	0.0119174	2660.22	156.243	1	11	0.00498761	0.000137733	0	1.64512e-06	-5.80336e-06	9.10705e-06	28.042	0.0661212	0.0583588	-0.0310848	-13.9552	36.2614	35.1911	8.74493	0.0267917	0.00669247	0.027615	14.0252	156243	625483	644702	-75.9748	0.0000000E+000	0.0000000E+000	0.0000000E+000	75.9748	0.0000000E+000	0.0000000E+000	0.0000000E+000	-75.9748	0.0000000E+000	0.0000000E+000	0.0000000E+000	-14.0252	0.0000000E+000	0.0000000E+000	0.0000000E+000	14.0252	4.00327	75.9748	-1.44799e-07	2.60728e-06	-6.91609e-11	2.60735e-06	0.218785	18358	0.486966	18358.5
4.63925	36.7956	6.96769	37.4495	-10.7227	13.5325	0.218772	0.011322	4923.61	170.439	1	11	0.00498452	0.0001331	0	3.23689e-06	-5.80336e-06	4.99412e-06	-2.02772	0.0375216	0.0374981	0.00132763	-10.714	37.4866	36.8331	6.96901	0.0262364	0.00496818	0.0267026	10.7227	170439	900070	916065	-79.2773	0.0000000E+000	0.0000000E+000	0.0000000E+000	79.2773	0.0000000E+000	0.0000000E+000	0.0000000E+000	-79.2773	0.0000000E+000	0.0000000E+000	0.0000000E+000	-10.7227	0.0000000E+000	0.0000000E+000	0.0000000E+000	10.7227	5.28089	79.2773	1.59177e-06	2.47693e-06	-6.57054e-11	2.477e-06	0.218778	19322.9	0.512576	19323.4
3.1604	37.8753	5.58031	38.2842	-8.3813	14.2255	0.218781	0.0117889	9024.44	191.733	1	11	0.00498486	0.000130207	0	7.28865e-06	-5.80336e-06	2.29813e-06	-106.579	0.0176499	-0.00503624	0.0169161	-8.40744	38.2817	37.8703	5.59723	0.0258415	0.00380732	0.0261204	8.3813	191733	1.30136e+06	1.3154e+06	-81.6187	0.0000000E+000	0.0000000E+000	0.0000000E+000	81.6187	0.0000000E+000	0.0000000E+000	0.0000000E+000	-81.6187	0.0000000E+000	0.0000000E+000	0.0000000E+000	-8.3813	0.0000000E+000	0.0000000E+000	0.0000000E+000	8.3813	6.78732	81.6187	4.05175e-06	2.57918e-06	-6.8415e-11	2.57925e-06	0.218787	18558.3	0.492275	18558.8
2.15577	38.7822	4.48812	39.041	-6.60126	15.2292	0.218786	0.0122644	16449.5	217.39	1	11	0.00498685	0.000127734	0	1.18772e-05	0.000108856	4.26649e-06	24.9756	0.0334014	0.030278	-0.0141032	-6.57562	39.0695	38.8125	4.47402	0.0254443	0.00294457	0.0256141	6.60126	217390	1.87849e+06	1.89102e+06	-83.3987	0.0000000E+000	0.0000000E+000	0.0000000E+000	83.3987	0.0000000E+000	0.0000000E+000	0.0000000E+000	-83.3987	0.0000000E+000	0.0000000E+000	0.0000000E+000	-6.60126	0.0000000E+000	0.0000000E+000	0.0000000E+000	6.60126	8.64108	83.3987	4.58856e-06	2.68328e-06	1.33506e-09	2.68195e-06	0.218677	17839	8.87577	17830.1
1.46631	39.4002	3.80908	39.5839	-5.522	17.4163	0.21878	0.0122449	28495.4	263.863	1	12	0.00498698	0.000125985	0	1.75486e-05	-6.31332e-05	5.06283e-06	56.7367	0.0401859	0.0220414	-0.0336018	-5.47055	39.6026	39.4222	3.77547	0.0251456	0.00243099	0.0252628	5.522	263863	2.72933e+06	2.74206e+06	-84.478	0.0000000E+000	0.0000000E+000	0.0000000E+000	84.478	0.0000000E+000	0.0000000E+000	0.0000000E+000	-84.478	0.0000000E+000	0.0000000E+000	0.0000000E+000	-5.522	0.0000000E+000	0.0000000E+000	0.0000000E+000	5.522	10.3438	84.478	5.67137e-06	2.67894e-06	-7.73061e-10	2.67971e-06	0.218843	17867	5.15588	17872.1
1.00006	39.9432	3.28384	40.0779	-4.69988	19.5447	0.218774	0.0118843	48463	325.36	1	12	0.00498757	0.000124447	0	2.06076e-05	7.06365e-05	2.00493e-06	-60.6284	0.0161107	0.00790183	0.0140398	-4.71895	40.087	39.9511	3.29788	0.0248675	0.00204443	0.0249514	4.69988	325360	3.95753e+06	3.97088e+06	-85.3001	0.0000000E+000	0.0000000E+000	0.0000000E+000	85.3001	0.0000000E+000	0.0000000E+000	0.0000000E+000	-85.3001	0.0000000E+000	0.0000000E+000	0.0000000E+000	-4.69988	0.0000000E+000	0.0000000E+000	0.0000000E+000	4.69988	12.1636	85.3001	3.05905e-06	2.59997e-06	8.39462e-10	2.59913e-06	0.218703	18408.7	5.9437	18402.8
0.681362	40.4558	2.96491	40.5643	-4.19158	22.6568	0.218788	0.0116138	78782.7	420.887	1	12	0.00498378	0.000122861	0	2.69426e-05	-0.000101353	3.32629e-06	-82.3123	0.0270735	0.00362172	0.0268302	-4.22899	40.5699	40.4594	2.99174	0.0245863	0.00180187	0.0246522	4.19158	420887	5.74295e+06	5.75835e+06	-85.8084	0.0000000E+000	0.0000000E+000	0.0000000E+000	85.8084	0.0000000E+000	0.0000000E+000	0.0000000E+000	-85.8084	0.0000000E+000	0.0000000E+000	0.0000000E+000	-4.19158	0.0000000E+000	0.0000000E+000	0.0000000E+000	4.19158	13.6449	85.8084	6.33496e-06	2.54097e-06	-1.1771e-09	2.54214e-06	0.218889	18838.6	8.72694	18847.3
0.464091	40.963	2.83681	41.0611	-3.96158	27.2133	0.218792	0.0108554	120889	577.014	1	12	0.00498786	0.000121474	0	4.12062e-05	-0.000445332	4.62813e-06	-34.611	0.0380998	0.0313572	0.0216408	-3.98866	41.0939	40.9944	2.85846	0.0242957	0.00168255	0.0243539	3.96158	577013	8.33196e+06	8.35192e+06	-86.0384	0.0000000E+000	0.0000000E+000	0.0000000E+000	86.0384	0.0000000E+000	0.0000000E+000	0.0000000E+000	-86.0384	0.0000000E+000	0.0000000E+000	0.0000000E+000	-3.96158	0.0000000E+000	0.0000000E+000	0.0000000E+000	3.96158	14.4398	86.0384	1.42636e-05	2.37507e-06	-4.83425e-09	2.37991e-06	0.219238	20155.2	41.0241	20196.2
0.316193	41.4219	2.84277	41.5193	-3.92603	33.8877	0.218778	0.00970197	177062	830.06	1	12	0.00498554	0.000120078	0	6.73576e-05	-0.000235123	2.18841e-06	63.2106	0.018225	0.00821422	-0.0162689	-3.90286	41.5264	41.4301	2.8265	0.0240287	0.00164908	0.0240852	3.92603	830059	1.20948e+07	1.21232e+07	-86.074	0.0000000E+000	0.0000000E+000	0.0000000E+000	86.074	0.0000000E+000	0.0000000E+000	0.0000000E+000	-86.074	0.0000000E+000	0.0000000E+000	0.0000000E+000	-3.92603	0.0000000E+000	0.0000000E+000	0.0000000E+000	3.92603	14.571	86.074	2.61514e-05	2.12258e-06	-2.28116e-09	2.12486e-06	0.219013	22549.8	24.2345	22574.1
0.215268	41.9405	2.96503	42.0451	-4.04387	43.6802	0.218785	0.00931964	249351	1240.05	1	12	0.00498696	0.00011861	0	0.000108665	-0.000311563	2.66816e-06	-65.8548	0.0224953	0.00920172	0.0205272	-4.07088	42.0558	41.9497	2.98556	0.0237247	0.00167725	0.023784	4.04387	1.24005e+06	1.75405e+07	1.75843e+07	-85.9561	0.0000000E+000	0.0000000E+000	0.0000000E+000	85.9561	0.0000000E+000	0.0000000E+000	0.0000000E+000	-85.9561	0.0000000E+000	0.0000000E+000	0.0000000E+000	-4.04387	0.0000000E+000	0.0000000E+000	0.0000000E+000	4.04387	14.145	85.9561	4.13078e-05	2.039e-06	-2.90365e-09	2.0419e-06	0.219097	23475.7	33.4307	23509.1
0.146929	42.5445	3.2658	42.6696	-4.38953	58.0186	0.218779	0.00870153	331683	1942.97	1	12	0.00499074	0.000116962	0	0.000162738	0.000204406	4.05909e-06	30.4694	0.0347043	0.0299116	-0.0175978	-4.36292	42.6981	42.5744	3.2482	0.0233671	0.00179371	0.0234359	4.38953	1.94297e+06	2.53115e+07	2.5386e+07	-85.6105	0.0000000E+000	0.0000000E+000	0.0000000E+000	85.6105	0.0000000E+000	0.0000000E+000	0.0000000E+000	-85.6105	0.0000000E+000	0.0000000E+000	0.0000000E+000	-4.38953	0.0000000E+000	0.0000000E+000	0.0000000E+000	4.38953	13.0273	85.6105	5.40725e-05	1.90371e-06	1.77865e-09	1.90193e-06	0.218574	25142.5	23.4908	25119.1
0.0999041	43.1999	3.8273	43.3691	-5.06292	79.0949	0.218777	0.00844045	416240	3241.68	1	12	0.00498679	0.000114985	0	0.000222491	-5.80336e-06	5.07003e-07	-82.5705	0.00440929	0.000570146	0.00437228	-5.0686	43.37	43.2004	3.83167	0.0229679	0.00203485	0.0230579	5.06292	3.24167e+06	3.65897e+07	3.6733e+07	-84.9371	0.0000000E+000	0.0000000E+000	0.0000000E+000	84.9371	0.0000000E+000	0.0000000E+000	0.0000000E+000	-84.9371	0.0000000E+000	0.0000000E+000	0.0000000E+000	-5.06292	0.0000000E+000	0.0000000E+000	0.0000000E+000	5.06292	11.2873	84.9371	5.97531e-05	1.84657e-06	-4.8983e-11	1.84662e-06	0.218782	25920	0.687565	25920.7
0.0680626	43.9238	4.68292	44.1727	-6.08559	110.021	0.218785	0.00817802	499338	5612.04	1	12	0.00499329	0.00011304	0	0.000281332	0.000147076	2.89787e-06	12.5244	0.0256358	0.0250257	-0.00555927	-6.07499	44.197	43.9488	4.67737	0.0225108	0.00239999	0.0226384	6.08559	5.61204e+06	5.26385e+07	5.29368e+07	-83.9144	0.0000000E+000	0.0000000E+000	0.0000000E+000	83.9144	0.0000000E+000	0.0000000E+000	0.0000000E+000	-83.9144	0.0000000E+000	0.0000000E+000	0.0000000E+000	-6.08559	0.0000000E+000	0.0000000E+000	0.0000000E+000	6.08559	9.37956	83.9144	5.88407e-05	1.78923e-06	1.20279e-09	1.78803e-06	0.218638	26752.9	17.9843	26734.9
0.0464052	44.6412	5.72276	45.0065	-7.30516	155.373	0.218782	0.00737832	599306	9689.64	1	12	0.00498976	0.000110867	0	0.000320888	0.000108856	1.87808e-06	6.55364	0.0169398	0.0168291	-0.0019334	-7.29999	45.023	44.6581	5.72082	0.0220386	0.00282523	0.022219	7.30516	9.68963e+06	7.55855e+07	7.6204e+07	-82.6948	0.0000000E+000	0.0000000E+000	0.0000000E+000	82.6948	0.0000000E+000	0.0000000E+000	0.0000000E+000	-82.6948	0.0000000E+000	0.0000000E+000	0.0000000E+000	-7.30516	0.0000000E+000	0.0000000E+000	0.0000000E+000	7.30516	7.80065	82.6948	3.95564e-05	1.61424e-06	8.03177e-10	1.61344e-06	0.218673	29652	14.7535	29637.3
0.0315922	45.6784	6.94444	46.2032	-8.64443	221.978	0.218776	0.00638132	725443	16388.2	1	12	0.00498751	0.000107947	0	0.000347173	-0.000216013	2.71473e-06	17.8335	0.0251487	0.0239403	-0.00770182	-8.63053	46.2258	45.7023	6.93674	0.0213976	0.00325306	0.0216435	8.64443	1.63882e+07	1.07797e+08	1.09035e+08	-81.3556	0.0000000E+000	0.0000000E+000	0.0000000E+000	81.3556	0.0000000E+000	0.0000000E+000	0.0000000E+000	-81.3556	0.0000000E+000	0.0000000E+000	0.0000000E+000	-8.64443	0.0000000E+000	0.0000000E+000	0.0000000E+000	8.64443	6.57769	81.3556	2.62845e-05	1.39608e-06	-1.37845e-09	1.39746e-06	0.218992	34283.8	33.8508	34317.7
0.0215268	47.1344	8.69931	47.9305	-10.4571	319.717	0.218783	0.00567819	849877	27996.4	1	12	0.00498491	0.000104003	0	0.000408114	-6.31332e-05	8.14736e-07	-36.8172	0.00783377	0.00627133	0.00469449	-10.4612	47.9375	47.1407	8.70401	0.020517	0.00378671	0.0208636	10.4571	2.79964e+07	1.5169e+08	1.54252e+08	-79.5429	0.0000000E+000	0.0000000E+000	0.0000000E+000	79.5429	0.0000000E+000	0.0000000E+000	0.0000000E+000	-79.5429	0.0000000E+000	0.0000000E+000	0.0000000E+000	-10.4571	0.0000000E+000	0.0000000E+000	0.0000000E+000	10.4571	5.41817	79.5429	6.09412e-05	1.24229e-06	-3.58482e-10	1.24265e-06	0.218847	38530.5	11.1186	38541.6
0.0146812	48.9711	11.2731	50.2518	-12.9636	463.018	0.218783	0.0050378	961646	48394.9	1	12	0.00498796	9.92591e-05	0	0.000598066	0.000223516	2.24233e-06	-19.7182	0.0225906	0.021266	0.00762195	-12.9666	50.2743	48.9923	11.2807	0.0193926	0.00446416	0.0198998	12.9636	4.83949e+07	2.1023e+08	2.15728e+08	-77.0364	0.0000000E+000	0.0000000E+000	0.0000000E+000	77.0364	0.0000000E+000	0.0000000E+000	0.0000000E+000	-77.0364	0.0000000E+000	0.0000000E+000	0.0000000E+000	-12.9636	0.0000000E+000	0.0000000E+000	0.0000000E+000	12.9636	4.34406	77.0364	0.000189953	1.10219e-06	1.12603e-09	1.10106e-06	0.21856	43428.3	44.3678	43383.9
0.0100092	51.0038	14.5024	53.0255	-15.8725	673.2	0.218789	0.00495592	1.09644e+06	82014.6	1	12	0.00499406	9.41821e-05	0	0.00105058	0.000147076	2.43689e-06	21.2892	0.0258742	0.0241085	-0.00939428	-15.8556	53.0462	51.0279	14.493	0.0181398	0.00515785	0.0188588	15.8725	8.20146e+07	2.88439e+08	2.99873e+08	-74.1275	0.0000000E+000	0.0000000E+000	0.0000000E+000	74.1275	0.0000000E+000	0.0000000E+000	0.0000000E+000	-74.1275	0.0000000E+000	0.0000000E+000	0.0000000E+000	-15.8725	0.0000000E+000	0.0000000E+000	0.0000000E+000	15.8725	3.51693	74.1275	0.000452509	1.0843e-06	7.28898e-10	1.08357e-06	0.218642	44147	29.6769	44117.4