File: txt/19514_R316_UA718_SOC00_C08.mpt
EC-Lab ASCII FILE
Nb header lines : 65

Potentio Electrochemical Impedance Spectroscopy

Run on channel : 8 (SN 65398)
User :
CE vs. WE compliance from -10 V to 10 V
Electrode connection : standard
Potential control : Ewe
Ewe ctrl range : min = -10.00 V, max = 10.00 V
Safety Limits :
	Do not start on E overload
Acquisition started on : 12/04/2025 15:43:17.019
Technique started on : 12/04/2025 15:43:18.931
Loaded Setting File :  NONE
Saved on :
	File : 19514_R316_UA718_SOC00_C08.mpr
	Directory : C:\Users\Celltest\OneDrive - store-dot.com\Documents\EC-Lab\Data\Charmaine\
	Host : 169.254.61.224
Device : VMP-3e (SN .003165)
Address : USB
EC-LAB for windows v11.62 (software)
Internet server v27.00 (firmware)
Command interpretor v12.03 (firmware)
Electrode material :
Initial state :
Electrolyte :
Comments :
Electrode surface area : 0.001 cm²
Characteristic mass : 0.001 g
Equivalent Weight : 0.000 g/eq.
Density : 0.000 g/cm3
Volume (V) : 0.001 cm³
Record Ece
Cycle Definition : Charge/Discharge alternance
Mode                Single sine
E (V)               0.0000
vs.                 Eoc
tE (h:m:s)          0:00:0.0000
record              0
dI                  0.000
unit dI             mA
dt (s)              0.000
fi                  100.000
unit fi             kHz
ff                  10.000
unit ff             mHz
Nd                  6
Points              per decade
spacing             Logarithmic
Va (mV)             5.0
pw                  0.10
Na                  2
corr                0
E range min (V)     -10.000
E range max (V)     10.000
I Range             Auto
Bandwidth           5
nc cycles           0
goto Ns'            0
nr cycles           0
inc. cycle          0

freq/Hz	Re(Z)/Ohm	-Im(Z)/Ohm	|Z|/Ohm	Phase(Z)/deg	time/s	<Ewe>/V	<I>/mA	Cs/µF	Cp/µF	cycle number	I Range	|Ewe|/V	|I|/A	Ns	(Q-Qo)/mA.h	<Ece>/V	|Ece|/V	Phase(Zce)/deg	|Zce|/Ohm	Re(Zce)/Ohm	-Im(Zce)/Ohm	Phase(Zwe-ce)/deg	|Zwe-ce|/Ohm	Re(Zwe-ce)/Ohm	-Im(Zwe-ce)/Ohm	Re(Y)/Ohm-1	Im(Y)/Ohm-1	|Y|/Ohm-1	Phase(Y)/deg	Re(C)/nF	Im(C)/nF	|C|/nF	Phase(C)/deg	Re(M)	Im(M)	|M|	Phase(M)/deg	Re(Permittivity)	Im(Permittivity)	|Permittivity|	Phase(Permittivity)/deg	Re(Resistivity)/Ohm.cm	Im(Resistivity)/Ohm.cm	|Resistivity|/Ohm.cm	Phase(Resistivity)/deg	Re(Conductivity)/mS/cm	Im(Conductivity)/mS/cm	|Conductivity|/mS/cm	Phase(Conductivity)/deg	Tan(Delta)	Loss Angle(Delta)/deg	dq/mA.h	Pwe/W	Pce/W	Pwe-ce/W	<Ewe-Ece>/V	Rwe/Ohm	Rce/Ohm	Rwe-ce/Ohm		Ewe-Ece/V
100004	1.39368	0.612289	1.52225	-23.7175	1.91156	0.286919	-0.0053547	2.59925	0.420523	1	9	0.0045876	0.0030137	0	-2.01121e-06	-0.000196454	4.46091e-05	85.6211	0.0148021	0.00113017	-0.0147589	-23.1901	1.51741	1.39481	0.59753	0.60144	0.264232	0.656924	23.7175	420.523	957.186	1045.49	-66.2825	0.0000000E+000	0.0000000E+000	0.0000000E+000	66.2825	0.0000000E+000	0.0000000E+000	0.0000000E+000	-66.2825	0.0000000E+000	0.0000000E+000	0.0000000E+000	-23.7175	0.0000000E+000	0.0000000E+000	0.0000000E+000	23.7175	2.27618	66.2825	-2.01121e-06	-1.53637e-06	1.05195e-09	-1.53742e-06	0.287115	53582.6	36.6881	53619.3
68132	1.55542	0.700591	1.70592	-24.2477	2.41852	0.28692	-0.00970737	3.3343	0.56236	1	9	0.00506621	0.00296978	0	1.00235e-05	0.000185307	3.59502e-05	82.0247	0.0121054	0.00167957	-0.0119883	-23.8566	1.70257	1.5571	0.688602	0.534479	0.240739	0.586193	24.2477	562.361	1248.53	1369.33	-65.7523	0.0000000E+000	0.0000000E+000	0.0000000E+000	65.7523	0.0000000E+000	0.0000000E+000	0.0000000E+000	-65.7523	0.0000000E+000	0.0000000E+000	0.0000000E+000	-24.2477	0.0000000E+000	0.0000000E+000	0.0000000E+000	24.2477	2.22016	65.7523	1.20347e-05	-2.78524e-06	-1.79885e-09	-2.78344e-06	0.286735	29557	19.0894	29537.9
46420.4	1.743	0.7783	1.90887	-24.0621	2.92553	0.286928	-0.00550352	4.40519	0.732325	1	9	0.00511032	0.00267714	0	1.08793e-05	0.000108955	1.4969e-05	81.1902	0.00559144	0.000856354	-0.00552547	-23.9001	1.90741	1.74386	0.772774	0.478347	0.213596	0.523869	24.0621	732.325	1640.04	1796.12	-65.9379	0.0000000E+000	0.0000000E+000	0.0000000E+000	65.9379	0.0000000E+000	0.0000000E+000	0.0000000E+000	-65.9379	0.0000000E+000	0.0000000E+000	0.0000000E+000	-24.0621	0.0000000E+000	0.0000000E+000	0.0000000E+000	24.0621	2.2395	65.9379	8.55837e-07	-1.57911e-06	-5.99637e-10	-1.57851e-06	0.286819	52135.3	19.7974	52115.5
31621.1	1.94273	0.866789	2.12732	-24.0451	3.43452	0.286922	-0.00222974	5.8067	0.964026	1	9	0.00499793	0.0023494	0	1.25215e-05	1.35149e-05	1.07272e-05	14.1074	0.00456595	0.00442825	-0.0011129	-23.9692	2.13092	1.94715	0.865676	0.429284	0.191534	0.470074	24.0451	964.026	2160.66	2365.97	-65.9549	0.0000000E+000	0.0000000E+000	0.0000000E+000	65.9549	0.0000000E+000	0.0000000E+000	0.0000000E+000	-65.9549	0.0000000E+000	0.0000000E+000	0.0000000E+000	-24.0451	0.0000000E+000	0.0000000E+000	0.0000000E+000	24.0451	2.24129	65.9549	1.64211e-06	-6.39759e-07	-3.01348e-11	-6.39729e-07	0.286908	128680	6.06124	128674
21544.7	2.15805	0.959685	2.36181	-23.9747	3.69552	0.286921	-7.20036e-05	7.69753	1.27092	1	9	0.00518522	0.00219544	0	1.47199e-05	-0.000177366	1.66558e-05	-83.3054	0.00758655	0.000884423	0.00753482	-24.1328	2.36569	2.15893	0.96722	0.386874	0.172043	0.423403	23.9747	1270.92	2857.92	3127.77	-66.0253	0.0000000E+000	0.0000000E+000	0.0000000E+000	66.0253	0.0000000E+000	0.0000000E+000	0.0000000E+000	-66.0253	0.0000000E+000	0.0000000E+000	0.0000000E+000	-23.9747	0.0000000E+000	0.0000000E+000	0.0000000E+000	23.9747	2.24871	66.0253	2.19848e-06	-2.06594e-08	1.2771e-11	-2.06721e-08	0.287099	3.98482e+06	2463.29	3.98728e+06
14678.6	2.38759	1.04643	2.60684	-23.6667	4.07852	0.286922	0.00535951	10.3616	1.66962	1	9	0.00496919	0.00190621	0	1.29505e-05	1.35149e-05	1.63572e-05	-90.7384	0.00858097	-0.000110578	0.00858026	-23.8402	2.61019	2.38748	1.05501	0.351344	0.153986	0.383607	23.6667	1669.62	3809.5	4159.32	-66.3333	0.0000000E+000	0.0000000E+000	0.0000000E+000	66.3333	0.0000000E+000	0.0000000E+000	0.0000000E+000	-66.3333	0.0000000E+000	0.0000000E+000	0.0000000E+000	-23.6667	0.0000000E+000	0.0000000E+000	0.0000000E+000	23.6667	2.28166	66.3333	-1.76943e-06	1.53776e-06	7.24335e-11	1.53769e-06	0.286908	53535.1	2.52168	53532.5
10002.2	2.64148	1.15033	2.88109	-23.5324	4.33753	0.28693	0.00465266	13.8326	2.20512	1	9	0.00453368	0.0015736	0	1.36138e-05	-5.57311e-06	5.63872e-06	1.56628	0.00358332	0.00358198	-9.79438e-05	-23.5022	2.88433	2.64506	1.15023	0.318225	0.138583	0.347091	23.5324	2205.12	5063.59	5522.9	-66.4676	0.0000000E+000	0.0000000E+000	0.0000000E+000	66.4676	0.0000000E+000	0.0000000E+000	0.0000000E+000	-66.4676	0.0000000E+000	0.0000000E+000	0.0000000E+000	-23.5324	0.0000000E+000	0.0000000E+000	0.0000000E+000	23.5324	2.29629	66.4676	6.63335e-07	1.33499e-06	-2.59298e-11	1.33502e-06	0.286936	61670.2	1.19783	61671.4
6810.42	2.9061	1.2822	3.17639	-23.8076	4.72054	0.286918	-0.00148571	18.226	2.96986	1	9	0.00503508	0.00158516	0	1.63041e-05	-0.00013919	4.09383e-05	123.736	0.025826	-0.0143429	-0.021477	-23.5559	3.15462	2.89175	1.26072	0.288034	0.127084	0.314823	23.8076	2969.86	6731.15	7357.2	-66.1924	0.0000000E+000	0.0000000E+000	0.0000000E+000	66.1924	0.0000000E+000	0.0000000E+000	0.0000000E+000	-66.1924	0.0000000E+000	0.0000000E+000	0.0000000E+000	-23.8076	0.0000000E+000	0.0000000E+000	0.0000000E+000	23.8076	2.26649	66.1924	2.69029e-06	-4.26277e-07	2.06795e-10	-4.26484e-07	0.287057	193118	93.6855	193212
4646	3.17325	1.42295	3.47769	-24.1524	4.98864	0.286875	-0.0342609	24.0742	4.0304	1	9	0.0049097	0.00141177	0	1.52025e-05	0.000223484	1.01062e-05	111.165	0.0071585	-0.00258458	-0.00667563	-24.0693	3.4726	3.17067	1.41627	0.262376	0.117654	0.287547	24.1524	4030.4	8988.02	9850.31	-65.8476	0.0000000E+000	0.0000000E+000	0.0000000E+000	65.8476	0.0000000E+000	0.0000000E+000	0.0000000E+000	-65.8476	0.0000000E+000	0.0000000E+000	0.0000000E+000	-24.1524	0.0000000E+000	0.0000000E+000	0.0000000E+000	24.1524	2.23006	65.8476	-1.10158e-06	-9.82859e-06	-7.65674e-09	-9.82093e-06	0.286652	8373.25	6.523	8366.73
3163.08	3.48341	1.62863	3.84533	-25.0579	5.57062	0.286821	-0.0278958	30.895	5.54197	1	10	0.00503972	0.00131061	0	1.13129e-05	-0.000215542	7.18188e-06	-30.8778	0.00547981	0.00470312	0.00281229	-25.0662	3.85078	3.48811	1.63144	0.235579	0.110142	0.260056	25.0579	5541.97	11853.5	13085.1	-64.9421	0.0000000E+000	0.0000000E+000	0.0000000E+000	64.9421	0.0000000E+000	0.0000000E+000	0.0000000E+000	-64.9421	0.0000000E+000	0.0000000E+000	0.0000000E+000	-25.0579	0.0000000E+000	0.0000000E+000	0.0000000E+000	25.0579	2.13886	64.9421	-3.8896e-06	-8.00108e-06	6.0127e-09	-8.0071e-06	0.287036	10281.9	7.72669	10289.6
2155.69	3.80773	1.85608	4.23601	-25.987	6.02183	0.286854	-0.0109364	39.7775	7.63688	1	10	0.00495366	0.00116942	0	9.62446e-06	0.000242572	1.11163e-05	-6.87344	0.00950585	0.00943753	0.00113763	-25.945	4.245	3.81716	1.85722	0.212203	0.103439	0.236071	25.987	7636.88	15667	17429.2	-64.013	0.0000000E+000	0.0000000E+000	0.0000000E+000	64.013	0.0000000E+000	0.0000000E+000	0.0000000E+000	-64.013	0.0000000E+000	0.0000000E+000	0.0000000E+000	-25.987	0.0000000E+000	0.0000000E+000	0.0000000E+000	25.987	2.05149	64.013	-1.68847e-06	-3.13716e-06	-2.65287e-09	-3.1345e-06	0.286611	26229.2	22.1801	26207
1468.59	4.15799	2.16259	4.68676	-27.4791	6.47304	0.286855	-0.0120971	50.1125	10.6696	1	10	0.00488882	0.00104311	0	7.48646e-06	-0.000291894	8.31367e-06	27.2435	0.00797006	0.00708594	-0.00364848	-27.3996	4.69137	4.16508	2.15894	0.189295	0.0984529	0.213367	27.4791	10669.6	20514.4	23123.2	-62.5209	0.0000000E+000	0.0000000E+000	0.0000000E+000	62.5209	0.0000000E+000	0.0000000E+000	0.0000000E+000	-62.5209	0.0000000E+000	0.0000000E+000	0.0000000E+000	-27.4791	0.0000000E+000	0.0000000E+000	0.0000000E+000	27.4791	1.92269	62.5209	-2.138e-06	-3.4701e-06	3.53106e-09	-3.47363e-06	0.287146	23712.7	24.1293	23736.9
1000.32	4.52838	2.59528	5.21936	-29.8177	6.92379	0.286848	-0.0112378	61.3051	15.1576	1	10	0.00484611	0.000928488	0	6.82486e-06	-0.000101013	6.52603e-06	-61.8578	0.00702866	0.00331515	0.00619773	-29.8586	5.22532	4.53169	2.60148	0.16623	0.0952688	0.191595	29.8177	15157.6	26447.8	30483.5	-60.1823	0.0000000E+000	0.0000000E+000	0.0000000E+000	60.1823	0.0000000E+000	0.0000000E+000	0.0000000E+000	-60.1823	0.0000000E+000	0.0000000E+000	0.0000000E+000	-29.8177	0.0000000E+000	0.0000000E+000	0.0000000E+000	29.8177	1.74485	60.1823	-6.61597e-07	-3.22353e-06	1.13516e-09	-3.22466e-06	0.286949	25525.4	8.98875	25534.4
681.09	4.94264	3.17755	5.87592	-32.7363	7.3746	0.286845	-0.0129527	73.54	21.5058	1	10	0.00481257	0.000819032	0	4.69186e-06	0.00026166	2.53924e-06	112.232	0.00310029	-0.001173	-0.00286983	-32.719	5.87338	4.94147	3.17468	0.143155	0.0920322	0.170186	32.7363	21505.8	33452	39768.5	-57.2637	0.0000000E+000	0.0000000E+000	0.0000000E+000	57.2637	0.0000000E+000	0.0000000E+000	0.0000000E+000	-57.2637	0.0000000E+000	0.0000000E+000	0.0000000E+000	-32.7363	0.0000000E+000	0.0000000E+000	0.0000000E+000	32.7363	1.55549	57.2637	-2.133e-06	-3.7154e-06	-3.38919e-09	-3.71202e-06	0.286583	22145.6	20.2012	22125.4
463.961	5.4134	4.02029	6.74297	-36.5996	7.8263	0.286845	-0.0112936	85.3261	30.3315	1	10	0.00478292	0.00070932	0	3.77923e-06	0.000338012	6.65082e-06	-109.905	0.00937633	-0.00319228	0.00881618	-36.6759	6.74567	5.41021	4.0291	0.119061	0.0884208	0.148303	36.5996	30331.5	40842	50873	-53.4004	0.0000000E+000	0.0000000E+000	0.0000000E+000	53.4004	0.0000000E+000	0.0000000E+000	0.0000000E+000	-53.4004	0.0000000E+000	0.0000000E+000	0.0000000E+000	-36.5996	0.0000000E+000	0.0000000E+000	0.0000000E+000	36.5996	1.34652	53.4004	-9.12628e-07	-3.23951e-06	-3.81736e-09	-3.23569e-06	0.286507	25399	29.9296	25369.1
316.316	6.03597	5.19779	7.96555	-40.7329	8.27407	0.286844	-0.0128783	96.8012	41.218	1	10	0.00476909	0.000598715	0	1.82165e-06	-4.37492e-05	7.29406e-06	-7.20131	0.0121829	0.0120868	0.00152719	-40.6846	7.9757	6.04806	5.19932	0.0951296	0.0819195	0.125541	40.7329	41218	47864.7	63166	-49.2671	0.0000000E+000	0.0000000E+000	0.0000000E+000	49.2671	0.0000000E+000	0.0000000E+000	0.0000000E+000	-49.2671	0.0000000E+000	0.0000000E+000	0.0000000E+000	-40.7329	0.0000000E+000	0.0000000E+000	0.0000000E+000	40.7329	1.16126	49.2671	-1.95758e-06	-3.69406e-06	5.63414e-10	-3.69462e-06	0.286888	22273.5	3.39714	22276.9
215.345	6.94871	6.77206	9.70285	-44.2624	8.72352	0.286843	-0.0116172	109.135	53.1628	1	10	0.00475719	0.000490288	0	3.84646e-07	8.98672e-05	4.87351e-06	-15.5696	0.0099401	0.00957535	0.002668	-44.2342	9.71157	6.95829	6.77473	0.0738083	0.0719319	0.103062	44.2624	53162.8	54549.6	76170.5	-45.7376	0.0000000E+000	0.0000000E+000	0.0000000E+000	45.7376	0.0000000E+000	0.0000000E+000	0.0000000E+000	-45.7376	0.0000000E+000	0.0000000E+000	0.0000000E+000	-44.2624	0.0000000E+000	0.0000000E+000	0.0000000E+000	44.2624	1.02609	45.7376	-1.43701e-06	-3.33231e-06	-1.04401e-09	-3.33127e-06	0.286753	24691.2	7.7357	24683.5
146.737	8.28548	8.87349	12.1403	-46.9627	9.16953	0.286842	-0.0144035	122.232	65.2998	1	10	0.00474615	0.00039094	0	-1.28318e-06	-0.000158278	6.8584e-06	-71.1499	0.0175434	0.00566815	0.0166025	-46.9966	12.1563	8.29114	8.89009	0.0562154	0.060205	0.08237	46.9627	65299.8	60972.6	89340.5	-43.0373	0.0000000E+000	0.0000000E+000	0.0000000E+000	43.0373	0.0000000E+000	0.0000000E+000	0.0000000E+000	-43.0373	0.0000000E+000	0.0000000E+000	0.0000000E+000	-46.9627	0.0000000E+000	0.0000000E+000	0.0000000E+000	46.9627	0.933734	43.0373	-1.66783e-06	-4.13151e-06	2.27974e-09	-4.13379e-06	0.287	19914.8	10.9889	19925.8
100.032	10.37	11.4326	15.435	-47.7903	9.62086	0.286842	-0.012205	139.167	76.3503	1	10	0.00474333	0.000307309	0	-2.62272e-06	-0.00023463	8.29878e-06	23.4559	0.0270046	0.0247732	-0.010749	-47.6955	15.4437	10.3947	11.4218	0.0435273	0.0479877	0.0647877	47.7903	76350.3	69253.7	103080	-42.2097	0.0000000E+000	0.0000000E+000	0.0000000E+000	42.2097	0.0000000E+000	0.0000000E+000	0.0000000E+000	-42.2097	0.0000000E+000	0.0000000E+000	0.0000000E+000	-47.7903	0.0000000E+000	0.0000000E+000	0.0000000E+000	47.7903	0.907052	42.2097	-1.33954e-06	-3.5009e-06	2.86365e-09	-3.50377e-06	0.287077	23502.1	19.2241	23521.3
68.104	13.4998	14.4469	19.7727	-46.9409	10.0834	0.286851	-0.00938523	161.761	86.3558	1	10	0.00474226	0.000239839	0	-3.67273e-06	-6.28373e-05	6.50175e-06	-98.2567	0.0271088	-0.00389303	0.0268278	-47.0022	19.7896	13.4959	14.4737	0.0345301	0.0369525	0.0505749	46.9409	86355.8	80694.8	118190	-43.0591	0.0000000E+000	0.0000000E+000	0.0000000E+000	43.0591	0.0000000E+000	0.0000000E+000	0.0000000E+000	-43.0591	0.0000000E+000	0.0000000E+000	0.0000000E+000	-46.9409	0.0000000E+000	0.0000000E+000	0.0000000E+000	46.9409	0.934446	43.0591	-1.05001e-06	-2.69216e-06	5.89742e-10	-2.69275e-06	0.286914	30564.1	6.69534	30570.8
46.4415	18.189	17.2821	25.09	-43.5355	10.7597	0.286895	-0.0036289	198.297	94.0822	1	11	0.00475482	0.00018951	0	-4.56211e-06	-2.46612e-05	8.23395e-06	73.1576	0.0434486	0.0125888	-0.0415849	-43.4467	25.0706	18.2016	17.2405	0.0288939	0.0274533	0.0398564	43.5355	94082.2	99019.1	136588	-46.4645	0.0000000E+000	0.0000000E+000	0.0000000E+000	46.4645	0.0000000E+000	0.0000000E+000	0.0000000E+000	-46.4645	0.0000000E+000	0.0000000E+000	0.0000000E+000	-43.5355	0.0000000E+000	0.0000000E+000	0.0000000E+000	43.5355	1.05248	46.4645	-8.89382e-07	-1.04112e-06	8.9493e-11	-1.04121e-06	0.28692	79058.4	6.79576	79065.2
31.6296	23.9341	19.072	30.6036	-38.5498	11.1896	0.286886	-0.00377929	263.834	102.466	1	11	0.00473238	0.000154635	0	-5.27592e-06	-0.000215542	4.33057e-05	-87.2526	0.280052	0.0134238	0.27973	-38.9413	30.7892	23.9475	19.3517	0.0255547	0.0203634	0.0326759	38.5498	102466	128587	164420	-51.4502	0.0000000E+000	0.0000000E+000	0.0000000E+000	51.4502	0.0000000E+000	0.0000000E+000	0.0000000E+000	-51.4502	0.0000000E+000	0.0000000E+000	0.0000000E+000	-38.5498	0.0000000E+000	0.0000000E+000	0.0000000E+000	38.5498	1.25493	51.4502	-7.13807e-07	-1.08423e-06	8.14595e-10	-1.08504e-06	0.287102	75910.1	57.0323	75967.1
21.5517	30.3427	19.7019	36.1779	-32.9962	11.6105	0.286883	-0.00418689	374.826	111.163	1	11	0.00474267	0.000131093	0	-5.84326e-06	0.000108955	1.67718e-05	29.894	0.127938	0.110916	-0.0637641	-32.8161	36.2364	30.4536	19.6381	0.0231828	0.0150529	0.0276412	32.9962	111163	171200	204124	-57.0038	0.0000000E+000	0.0000000E+000	0.0000000E+000	57.0038	0.0000000E+000	0.0000000E+000	0.0000000E+000	-57.0038	0.0000000E+000	0.0000000E+000	0.0000000E+000	-32.9962	0.0000000E+000	0.0000000E+000	0.0000000E+000	32.9962	1.54009	57.0038	-5.67344e-07	-1.20115e-06	-4.56184e-10	-1.20069e-06	0.286774	68519.3	26.0229	68493.3
14.6852	36.4128	18.8695	41.0116	-27.3937	12.0712	0.286899	-0.00311075	574.356	121.588	1	11	0.00474605	0.000115725	0	-6.73634e-06	0.000204395	1.62893e-05	-13.1946	0.140759	0.137043	0.0321295	-27.3456	41.148	36.5498	18.9016	0.0216492	0.0112188	0.0243834	27.3937	121588	234630	264262	-62.6063	0.0000000E+000	0.0000000E+000	0.0000000E+000	62.6063	0.0000000E+000	0.0000000E+000	0.0000000E+000	-62.6063	0.0000000E+000	0.0000000E+000	0.0000000E+000	-27.3937	0.0000000E+000	0.0000000E+000	0.0000000E+000	27.3937	1.92972	62.6063	-8.93082e-07	-8.92471e-07	-6.35824e-10	-8.91835e-07	0.286694	92228	65.7061	92162.3
10.0032	41.6182	16.9782	44.9482	-22.1931	12.5218	0.286895	-0.00345805	937.106	133.706	1	11	0.00474475	0.000105561	0	-6.38876e-06	-0.000120101	6.46596e-06	15.8774	0.0612536	0.0589167	-0.0167578	-22.145	44.9964	41.6771	16.9615	0.0205996	0.00840367	0.0222479	22.1931	133706	327749	353972	-67.8069	0.0000000E+000	0.0000000E+000	0.0000000E+000	67.8069	0.0000000E+000	0.0000000E+000	0.0000000E+000	-67.8069	0.0000000E+000	0.0000000E+000	0.0000000E+000	-22.1931	0.0000000E+000	0.0000000E+000	0.0000000E+000	22.1931	2.45127	67.8069	3.47582e-07	-9.92099e-07	4.15317e-10	-9.92514e-07	0.287015	82964.5	34.731	82999.2
6.81719	45.7307	14.9866	48.1237	-18.1448	12.8615	0.286895	-0.00329241	1557.79	151.078	1	11	0.0047435	9.85689e-05	0	-7.60021e-06	-0.000215542	9.96132e-06	40.5645	0.101059	0.0767723	-0.0657193	-18.0421	48.1763	45.8074	14.9209	0.0197464	0.00647121	0.0207798	18.1448	151078	461003	485127	-71.8552	0.0000000E+000	0.0000000E+000	0.0000000E+000	71.8552	0.0000000E+000	0.0000000E+000	0.0000000E+000	-71.8552	0.0000000E+000	0.0000000E+000	0.0000000E+000	-18.1448	0.0000000E+000	0.0000000E+000	0.0000000E+000	18.1448	3.05143	71.8552	-1.21144e-06	-9.44574e-07	7.09651e-10	-9.45284e-07	0.28711	87138.4	65.4663	87203.8
4.63925	49.1245	12.9812	50.8107	-14.8021	13.3454	0.2869	-0.00298122	2642.75	172.495	1	11	0.00474384	9.33631e-05	0	-7.72785e-06	0.000223484	8.91107e-06	33.845	0.0954453	0.0792719	-0.0531581	-14.7215	50.8738	49.2038	12.9281	0.0190278	0.00502811	0.0196809	14.8021	172495	652769	675176	-75.1979	0.0000000E+000	0.0000000E+000	0.0000000E+000	75.1979	0.0000000E+000	0.0000000E+000	0.0000000E+000	-75.1979	0.0000000E+000	0.0000000E+000	0.0000000E+000	-14.8021	0.0000000E+000	0.0000000E+000	0.0000000E+000	14.8021	3.78427	75.1979	-1.27644e-07	-8.55312e-07	-6.66253e-10	-8.54646e-07	0.286677	96236	74.9639	96161.1
3.1604	51.7347	11.0063	52.8925	-12.0103	14.0384	0.286896	-0.00277462	4575.5	198.12	1	11	0.0047441	8.96933e-05	0	-6.99295e-06	0.000108955	3.67888e-06	172.739	0.0410163	-0.0406873	-0.00518402	-12.014	52.8517	51.694	11.0011	0.0184924	0.00393415	0.0189063	12.0103	198120	931262	952103	-77.9897	0.0000000E+000	0.0000000E+000	0.0000000E+000	77.9897	0.0000000E+000	0.0000000E+000	0.0000000E+000	-77.9897	0.0000000E+000	0.0000000E+000	0.0000000E+000	-12.0103	0.0000000E+000	0.0000000E+000	0.0000000E+000	12.0103	4.70048	77.9897	7.34904e-07	-7.96028e-07	-3.0231e-10	-7.95726e-07	0.286787	103400	39.2685	103361
2.15577	53.9764	9.63688	54.8299	-10.1229	15.552	0.286901	-0.00194385	7660.94	236.657	1	12	0.00474516	8.65433e-05	0	-7.53841e-06	-0.000101013	2.03928e-06	-29.9009	0.0235637	0.0204271	0.0117466	-10.1312	54.8521	53.9968	9.64862	0.0179543	0.00320554	0.0182382	10.1229	236657	1.32552e+06	1.34648e+06	-79.8771	0.0000000E+000	0.0000000E+000	0.0000000E+000	79.8771	0.0000000E+000	0.0000000E+000	0.0000000E+000	-79.8771	0.0000000E+000	0.0000000E+000	0.0000000E+000	-10.1229	0.0000000E+000	0.0000000E+000	0.0000000E+000	10.1229	5.60102	79.8771	-5.45467e-07	-5.57692e-07	1.96355e-10	-5.57888e-07	0.287002	147594	51.9656	147646
1.46631	55.8289	8.37542	56.4536	-8.53186	17.0135	0.286904	-0.00172288	12959.5	285.244	1	12	0.0047446	8.40443e-05	0	-1.01745e-05	-0.000101013	2.51252e-06	-51.7213	0.0298952	0.0185197	0.0234679	-8.55261	56.4754	55.8474	8.39889	0.0175176	0.00262798	0.0177137	8.53186	285244	1.90138e+06	1.92266e+06	-81.4681	0.0000000E+000	0.0000000E+000	0.0000000E+000	81.4681	0.0000000E+000	0.0000000E+000	0.0000000E+000	-81.4681	0.0000000E+000	0.0000000E+000	0.0000000E+000	-8.53186	0.0000000E+000	0.0000000E+000	0.0000000E+000	8.53186	6.6658	81.4681	-2.63613e-06	-4.94301e-07	1.74034e-10	-4.94475e-07	0.287005	166526	58.6305	166584
1.00006	57.4286	7.27831	57.8879	-7.22298	19.1419	0.286904	-0.00171165	21865.6	345.658	1	12	0.00474355	8.19436e-05	0	-1.3471e-05	-4.37492e-05	4.35297e-06	-27.3411	0.0531215	0.0471872	0.024398	-7.24104	57.9378	57.4757	7.30271	0.0171377	0.00217197	0.0172748	7.22298	345658	2.72737e+06	2.74919e+06	-82.777	0.0000000E+000	0.0000000E+000	0.0000000E+000	82.777	0.0000000E+000	0.0000000E+000	0.0000000E+000	-82.777	0.0000000E+000	0.0000000E+000	0.0000000E+000	-7.22298	0.0000000E+000	0.0000000E+000	0.0000000E+000	7.22298	7.89037	82.777	-3.29647e-06	-4.9108e-07	7.48834e-11	-4.91155e-07	0.286948	167618	25.5596	167644
0.681362	58.8353	6.5035	59.1936	-6.30772	22.254	0.286907	-0.00175122	35916.6	433.55	1	12	0.00474495	8.01598e-05	0	-1.61237e-05	8.98672e-05	2.92283e-06	6.65024	0.0364626	0.0362172	-0.00422266	-6.29981	59.2292	58.8715	6.49928	0.0167914	0.00185608	0.0168937	6.30772	433550	3.9222e+06	3.94609e+06	-83.6923	0.0000000E+000	0.0000000E+000	0.0000000E+000	83.6923	0.0000000E+000	0.0000000E+000	0.0000000E+000	-83.6923	0.0000000E+000	0.0000000E+000	0.0000000E+000	-6.30772	0.0000000E+000	0.0000000E+000	0.0000000E+000	6.30772	9.04671	83.6923	-2.6527e-06	-5.02437e-07	-1.57377e-10	-5.02279e-07	0.286817	163833	51.317	163782
0.464091	60.0163	6.02324	60.3178	-5.73102	26.8107	0.286907	-0.00181368	56936.1	567.749	1	12	0.00474714	7.87022e-05	0	-1.62447e-05	0.000338012	3.1553e-06	-66.6841	0.0400917	0.0158683	0.0368176	-5.7643	60.3373	60.0322	6.06005	0.016496	0.00165554	0.0165789	5.73102	567750	5.65713e+06	5.68554e+06	-84.269	0.0000000E+000	0.0000000E+000	0.0000000E+000	84.269	0.0000000E+000	0.0000000E+000	0.0000000E+000	-84.269	0.0000000E+000	0.0000000E+000	0.0000000E+000	-5.73102	0.0000000E+000	0.0000000E+000	0.0000000E+000	5.73102	9.96413	84.269	-1.2103e-07	-5.20358e-07	-6.13046e-10	-5.19745e-07	0.286569	158190	186.368	158004
0.316193	60.9997	5.75295	61.2704	-5.38769	33.4841	0.286898	-0.00187713	87493.8	771.36	1	12	0.00474738	7.74825e-05	0	-1.31891e-05	-0.000101013	2.09575e-06	-4.89387	0.0270481	0.0269495	0.00230748	-5.38747	61.2974	61.0266	5.75525	0.016249	0.00153246	0.0163211	5.38769	771360	8.17889e+06	8.21518e+06	-84.6123	0.0000000E+000	0.0000000E+000	0.0000000E+000	84.6123	0.0000000E+000	0.0000000E+000	0.0000000E+000	-84.6123	0.0000000E+000	0.0000000E+000	0.0000000E+000	-5.38769	0.0000000E+000	0.0000000E+000	0.0000000E+000	5.38769	10.6032	84.6123	3.05569e-06	-5.38545e-07	1.89615e-10	-5.38735e-07	0.286999	152839	53.8127	152892
0.215268	61.9613	5.70524	62.2234	-5.26082	43.2775	0.2869	-0.00155999	129589	1089.45	1	12	0.00474532	7.62627e-05	0	-7.88136e-06	-0.000120101	1.85694e-06	67.0063	0.0243493	0.00951156	-0.0224147	-5.23946	62.2308	61.9708	5.68282	0.0160034	0.00147356	0.0160711	5.26082	1.08945e+06	1.18319e+07	1.18819e+07	-84.7392	0.0000000E+000	0.0000000E+000	0.0000000E+000	84.7392	0.0000000E+000	0.0000000E+000	0.0000000E+000	-84.7392	0.0000000E+000	0.0000000E+000	0.0000000E+000	-5.26082	0.0000000E+000	0.0000000E+000	0.0000000E+000	5.26082	10.8604	84.7392	5.3077e-06	-4.47562e-07	1.87358e-10	-4.4775e-07	0.28702	183911	76.9884	183988
0.146929	63.0082	6.06231	63.2992	-5.49577	57.6159	0.286899	-0.00109692	178680	1638.91	1	12	0.00474597	7.49769e-05	0	-4.75249e-06	0.000108955	2.0674e-06	-14.1269	0.0275739	0.02674	0.00672997	-5.49952	63.3264	63.0349	6.06904	0.0157254	0.00151301	0.015798	5.49577	1.63891e+06	1.70339e+07	1.71126e+07	-84.5042	0.0000000E+000	0.0000000E+000	0.0000000E+000	84.5042	0.0000000E+000	0.0000000E+000	0.0000000E+000	-84.5042	0.0000000E+000	0.0000000E+000	0.0000000E+000	-5.49577	0.0000000E+000	0.0000000E+000	0.0000000E+000	5.49577	10.3934	84.5042	3.12887e-06	-3.14705e-07	-1.19515e-10	-3.14585e-07	0.28679	261551	99.3287	261452
0.0999041	64.093	6.83372	64.4562	-6.086	78.693	0.286899	-0.000692256	233120	2620.38	1	12	0.00474509	7.36172e-05	0	-1.12303e-05	0.000108955	4.14966e-06	-54.2469	0.056368	0.0329355	0.045745	-6.12331	64.4939	64.1259	6.87947	0.015427	0.00164485	0.0155144	6.086	2.62038e+06	2.45763e+07	2.47156e+07	-83.914	0.0000000E+000	0.0000000E+000	0.0000000E+000	83.914	0.0000000E+000	0.0000000E+000	0.0000000E+000	-83.914	0.0000000E+000	0.0000000E+000	0.0000000E+000	-6.086	0.0000000E+000	0.0000000E+000	0.0000000E+000	6.086	9.37893	83.914	-6.4778e-06	-1.98607e-07	-7.54249e-11	-1.98532e-07	0.28679	414440	157.392	414283
0.0680626	65.3019	8.02327	65.7929	-7.0045	109.62	0.286895	-0.000384837	291447	4334.16	1	12	0.00474638	7.21412e-05	0	-3.3146e-05	0.000108955	3.11573e-06	-7.53981	0.0431894	0.042816	0.0056671	-7.00485	65.8361	65.3447	8.02894	0.0150858	0.0018535	0.0151992	7.0045	4.33416e+06	3.5276e+07	3.55412e+07	-82.9955	0.0000000E+000	0.0000000E+000	0.0000000E+000	82.9955	0.0000000E+000	0.0000000E+000	0.0000000E+000	-82.9955	0.0000000E+000	0.0000000E+000	0.0000000E+000	-7.0045	0.0000000E+000	0.0000000E+000	0.0000000E+000	7.0045	8.13906	82.9955	-2.19157e-05	-1.10408e-07	-4.193e-11	-1.10366e-07	0.286786	745497	283.12	745214
0.0464052	66.6882	9.42869	67.3514	-8.04741	154.972	0.286894	-0.000326289	363749	7128.72	1	12	0.00474305	7.04224e-05	0	-7.98557e-05	8.98672e-05	2.16652e-06	-0.791289	0.0307646	0.0307617	0.000424864	-8.04411	67.3819	66.7189	9.42912	0.0147013	0.00207854	0.0148475	8.04741	7.12872e+06	5.04207e+07	5.09222e+07	-81.9526	0.0000000E+000	0.0000000E+000	0.0000000E+000	81.9526	0.0000000E+000	0.0000000E+000	0.0000000E+000	-81.9526	0.0000000E+000	0.0000000E+000	0.0000000E+000	-8.04741	0.0000000E+000	0.0000000E+000	0.0000000E+000	8.04741	7.0729	81.9526	-4.67097e-05	-9.36105e-08	-2.93227e-11	-9.35812e-08	0.286804	879264	275.422	878989
0.0315922	68.6853	11.2849	69.6061	-9.33025	221.576	0.286891	-0.000470971	446419	11733.9	1	12	0.00474554	6.81771e-05	0	-0.00014289	0.000242572	2.63109e-06	-11.6113	0.038592	0.0378023	0.00776748	-9.33152	69.6447	68.7231	11.2927	0.0141765	0.00232917	0.0143665	9.33025	1.17339e+07	7.14182e+07	7.23757e+07	-80.6697	0.0000000E+000	0.0000000E+000	0.0000000E+000	80.6697	0.0000000E+000	0.0000000E+000	0.0000000E+000	-80.6697	0.0000000E+000	0.0000000E+000	0.0000000E+000	-9.33025	0.0000000E+000	0.0000000E+000	0.0000000E+000	9.33025	6.08648	80.6697	-6.30347e-05	-1.35117e-07	-1.14244e-10	-1.35003e-07	0.286648	609147	515.045	608632
0.0215268	71.0789	13.9327	72.4315	-11.0903	319.315	0.286895	-0.000708507	530649	19634.5	1	12	0.00474271	6.54785e-05	0	-0.00019482	0.000108955	2.83208e-06	17.2455	0.0432521	0.0413077	-0.0128228	-11.0741	72.4696	71.1202	13.9198	0.0135483	0.0026557	0.0138061	11.0903	1.96345e+07	1.00167e+08	1.02074e+08	-78.9097	0.0000000E+000	0.0000000E+000	0.0000000E+000	78.9097	0.0000000E+000	0.0000000E+000	0.0000000E+000	-78.9097	0.0000000E+000	0.0000000E+000	0.0000000E+000	-11.0903	0.0000000E+000	0.0000000E+000	0.0000000E+000	11.0903	5.1016	78.9097	-5.19297e-05	-2.03267e-07	-7.71955e-11	-2.0319e-07	0.286786	404929	153.781	404775
0.0146812	73.5785	17.4003	75.608	-13.3052	462.618	0.286895	-0.000800046	623021	32997.4	1	12	0.0047472	6.2787e-05	0	-0.0001932	1.35149e-05	3.63746e-06	-14.0556	0.0579333	0.0561989	0.0140699	-13.3058	75.6659	73.6347	17.4144	0.0128711	0.00304383	0.0132261	13.3052	3.29974e+07	1.39532e+08	1.43381e+08	-76.6948	0.0000000E+000	0.0000000E+000	0.0000000E+000	76.6948	0.0000000E+000	0.0000000E+000	0.0000000E+000	-76.6948	0.0000000E+000	0.0000000E+000	0.0000000E+000	-13.3052	0.0000000E+000	0.0000000E+000	0.0000000E+000	13.3052	4.22858	76.6948	1.62002e-06	-2.29529e-07	-1.08126e-11	-2.29518e-07	0.286881	358598	16.8927	358581
0.0100092	76.2272	21.5097	79.2038	-15.758	672.8	0.286896	-0.000601503	739243	54521.1	1	12	0.00474833	5.99508e-05	0	-9.19152e-05	-0.000215542	3.32636e-06	19.1058	0.0554848	0.0524285	-0.0181609	-15.735	79.2494	76.2796	21.4916	0.0121511	0.0034288	0.0126257	15.758	5.45211e+07	1.93214e+08	2.00759e+08	-74.242	0.0000000E+000	0.0000000E+000	0.0000000E+000	74.242	0.0000000E+000	0.0000000E+000	0.0000000E+000	-74.242	0.0000000E+000	0.0000000E+000	0.0000000E+000	-15.758	0.0000000E+000	0.0000000E+000	0.0000000E+000	15.758	3.54385	74.242	0.000101285	-1.72569e-07	1.29649e-10	-1.72698e-07	0.287111	476964	358.338	477323