File: txt/19512_R316_UA718_SOC00_C06.mpt
EC-Lab ASCII FILE
Nb header lines : 65

Potentio Electrochemical Impedance Spectroscopy

Run on channel : 6 (SN 65795)
User :
CE vs. WE compliance from -10 V to 10 V
Electrode connection : standard
Potential control : Ewe
Ewe ctrl range : min = -10.00 V, max = 10.00 V
Safety Limits :
	Do not start on E overload
Acquisition started on : 12/04/2025 15:43:04.751
Technique started on : 12/04/2025 15:43:06.662
Loaded Setting File :  C:\Users\Celltest\OneDrive - store-dot.com\Documents\EC-Lab\Data\Charmaine\19495_R316_UA628_SOC00_C05.mpr
Saved on :
	File : 19512_R316_UA718_SOC00_C06.mpr
	Directory : C:\Users\Celltest\OneDrive - store-dot.com\Documents\EC-Lab\Data\Charmaine\
	Host : 169.254.61.224
Device : VMP-3e (SN .003165)
Address : USB
EC-LAB for windows v11.62 (software)
Internet server v27.00 (firmware)
Command interpretor v12.03 (firmware)
Electrode material :
Initial state :
Electrolyte :
Comments :
Electrode surface area : 0.001 cm²
Characteristic mass : 0.001 g
Equivalent Weight : 0.000 g/eq.
Density : 0.000 g/cm3
Volume (V) : 0.001 cm³
Record Ece
Cycle Definition : Charge/Discharge alternance
Mode                Single sine
E (V)               0.0000
vs.                 Eoc
tE (h:m:s)          0:00:0.0000
record              0
dI                  0.000
unit dI             mA
dt (s)              0.000
fi                  100.000
unit fi             kHz
ff                  10.000
unit ff             mHz
Nd                  6
Points              per decade
spacing             Logarithmic
Va (mV)             5.0
pw                  0.10
Na                  2
corr                0
E range min (V)     -10.000
E range max (V)     10.000
I Range             Auto
Bandwidth           5
nc cycles           0
goto Ns'            0
nr cycles           0
inc. cycle          0

freq/Hz	Re(Z)/Ohm	-Im(Z)/Ohm	|Z|/Ohm	Phase(Z)/deg	time/s	<Ewe>/V	<I>/mA	Cs/µF	Cp/µF	cycle number	I Range	|Ewe|/V	|I|/A	Ns	(Q-Qo)/mA.h	<Ece>/V	|Ece|/V	Phase(Zce)/deg	|Zce|/Ohm	Re(Zce)/Ohm	-Im(Zce)/Ohm	Phase(Zwe-ce)/deg	|Zwe-ce|/Ohm	Re(Zwe-ce)/Ohm	-Im(Zwe-ce)/Ohm	Re(Y)/Ohm-1	Im(Y)/Ohm-1	|Y|/Ohm-1	Phase(Y)/deg	Re(C)/nF	Im(C)/nF	|C|/nF	Phase(C)/deg	Re(M)	Im(M)	|M|	Phase(M)/deg	Re(Permittivity)	Im(Permittivity)	|Permittivity|	Phase(Permittivity)/deg	Re(Resistivity)/Ohm.cm	Im(Resistivity)/Ohm.cm	|Resistivity|/Ohm.cm	Phase(Resistivity)/deg	Re(Conductivity)/mS/cm	Im(Conductivity)/mS/cm	|Conductivity|/mS/cm	Phase(Conductivity)/deg	Tan(Delta)	Loss Angle(Delta)/deg	dq/mA.h	Pwe/W	Pce/W	Pwe-ce/W	<Ewe-Ece>/V	Rwe/Ohm	Rce/Ohm	Rwe-ce/Ohm		Ewe-Ece/V
100004	1.3714	0.606242	1.49942	-23.8483	1.91054	0.288125	0.0334436	2.62517	0.429142	1	9	0.00463866	0.00309363	0	1.10388e-06	0.000106829	4.86579e-05	93.4172	0.0157284	-0.000937509	-0.0157005	-23.3115	1.49228	1.37046	0.590541	0.609981	0.269648	0.666923	23.8483	429.143	970.778	1061.4	-66.1517	0.0000000E+000	0.0000000E+000	0.0000000E+000	66.1517	0.0000000E+000	0.0000000E+000	0.0000000E+000	-66.1517	0.0000000E+000	0.0000000E+000	0.0000000E+000	-23.8483	0.0000000E+000	0.0000000E+000	0.0000000E+000	23.8483	2.26213	66.1517	1.10388e-06	9.63594e-06	3.57275e-09	9.63237e-06	0.288018	8615.23	3.1943	8612.04
68132	1.54296	0.737931	1.71034	-25.5598	2.41754	0.288109	0.0286384	3.16558	0.589276	1	9	0.00504966	0.00295243	0	-1.00228e-05	0.000336005	2.81471e-05	68.9634	0.00953353	0.0034222	-0.00889813	-25.2413	1.70962	1.54638	0.729033	0.52746	0.252261	0.584679	25.5598	589.276	1232.13	1365.8	-64.4402	0.0000000E+000	0.0000000E+000	0.0000000E+000	64.4402	0.0000000E+000	0.0000000E+000	0.0000000E+000	-64.4402	0.0000000E+000	0.0000000E+000	0.0000000E+000	-25.5598	0.0000000E+000	0.0000000E+000	0.0000000E+000	25.5598	2.09093	64.4402	-1.11266e-05	8.25098e-06	9.62266e-09	8.24136e-06	0.287773	10060.2	11.7327	10048.5
46420.4	1.74508	0.831201	1.93293	-25.4689	2.92452	0.288103	0.0233861	4.12483	0.762757	1	9	0.00508289	0.00262963	0	-4.22299e-06	0.000202319	2.16296e-05	40.3411	0.00822533	0.00626938	-0.00532455	-25.2469	1.93631	1.75135	0.825876	0.467073	0.222472	0.51735	25.4689	762.757	1601.39	1773.77	-64.5311	0.0000000E+000	0.0000000E+000	0.0000000E+000	64.5311	0.0000000E+000	0.0000000E+000	0.0000000E+000	-64.5311	0.0000000E+000	0.0000000E+000	0.0000000E+000	-25.4689	0.0000000E+000	0.0000000E+000	0.0000000E+000	25.4689	2.09947	64.5311	5.79978e-06	6.73762e-06	4.73147e-09	6.73289e-06	0.287901	12319.4	8.65124	12310.7
31621.1	1.95341	0.92666	2.16206	-25.3788	3.43353	0.288108	0.0242056	5.43153	0.997766	1	9	0.00499655	0.00231102	0	-3.76048e-06	0.000297809	2.13159e-05	50.7532	0.0092236	0.00583542	-0.00714301	-25.1417	2.16429	1.95924	0.919517	0.417886	0.198238	0.462522	25.3788	997.766	2103.3	2327.96	-64.6212	0.0000000E+000	0.0000000E+000	0.0000000E+000	64.6212	0.0000000E+000	0.0000000E+000	0.0000000E+000	-64.6212	0.0000000E+000	0.0000000E+000	0.0000000E+000	-25.3788	0.0000000E+000	0.0000000E+000	0.0000000E+000	25.3788	2.10801	64.6212	4.62509e-07	6.97383e-06	7.20866e-09	6.96662e-06	0.28781	11902.5	12.3033	11890.2
21544.7	2.1821	1.02106	2.40917	-25.0761	3.81652	0.288109	0.0226411	7.23484	1.29956	1	9	0.00523531	0.00217308	0	1.699e-06	0.000164123	5.28204e-06	-42.1369	0.00243068	0.00180245	0.00163075	-25.093	2.4115	2.1839	1.02269	0.375957	0.17592	0.41508	25.0761	1299.56	2777.27	3066.28	-64.9239	0.0000000E+000	0.0000000E+000	0.0000000E+000	64.9239	0.0000000E+000	0.0000000E+000	0.0000000E+000	-64.9239	0.0000000E+000	0.0000000E+000	0.0000000E+000	-25.0761	0.0000000E+000	0.0000000E+000	0.0000000E+000	25.0761	2.13709	64.9239	5.45948e-06	6.52311e-06	3.71593e-09	6.51939e-06	0.287945	12725	7.24889	12717.8
14678.6	2.43624	1.12435	2.68318	-24.7738	4.07553	0.288107	0.0219334	9.64347	1.69332	1	9	0.00548927	0.00204581	0	4.18215e-06	0.000316907	1.32418e-05	-31.6378	0.00647264	0.00551068	0.0033952	-24.7903	2.6896	2.44175	1.12775	0.338393	0.156172	0.372692	24.7738	1693.32	3669.08	4040.98	-65.2262	0.0000000E+000	0.0000000E+000	0.0000000E+000	65.2262	0.0000000E+000	0.0000000E+000	0.0000000E+000	-65.2262	0.0000000E+000	0.0000000E+000	0.0000000E+000	-24.7738	0.0000000E+000	0.0000000E+000	0.0000000E+000	24.7738	2.1668	65.2262	2.48314e-06	6.31916e-06	6.95085e-09	6.31221e-06	0.28779	13135.6	14.4486	13121.1
10002.2	2.68199	1.2168	2.94511	-24.4034	4.33455	0.288116	0.0234234	13.0769	2.23223	1	9	0.0053221	0.0018071	0	6.41328e-06	0.000183221	2.23426e-06	-91.0016	0.00123638	-2.16119e-05	0.00123619	-24.4255	2.9456	2.68197	1.21803	0.309211	0.140287	0.339546	24.4034	2232.23	4920.15	5402.85	-65.5966	0.0000000E+000	0.0000000E+000	0.0000000E+000	65.5966	0.0000000E+000	0.0000000E+000	0.0000000E+000	-65.5966	0.0000000E+000	0.0000000E+000	0.0000000E+000	-24.4034	0.0000000E+000	0.0000000E+000	0.0000000E+000	24.4034	2.20414	65.5966	2.23113e-06	6.74864e-06	4.29166e-09	6.74435e-06	0.287932	12300.3	7.82215	12292.5
6810.42	2.96218	1.33669	3.24981	-24.2874	4.59356	0.288119	0.0145951	17.4829	2.95775	1	9	0.0051574	0.00158698	0	6.27933e-06	0.000183221	3.92444e-05	-55.562	0.0247289	0.0139846	0.0203949	-24.5123	3.27097	2.97617	1.35709	0.280476	0.126565	0.30771	24.2874	2957.75	6554.53	7190.98	-65.7126	0.0000000E+000	0.0000000E+000	0.0000000E+000	65.7126	0.0000000E+000	0.0000000E+000	0.0000000E+000	-65.7126	0.0000000E+000	0.0000000E+000	0.0000000E+000	-24.2874	0.0000000E+000	0.0000000E+000	0.0000000E+000	24.2874	2.21605	65.7126	-1.33952e-07	4.20514e-06	2.67413e-09	4.20246e-06	0.287936	19740.8	12.5536	19728.2
4646	3.25552	1.48305	3.57741	-24.4915	4.8606	0.288083	-0.00179486	23.0986	3.9697	1	9	0.00503352	0.00140703	0	6.77919e-06	0.000336005	1.40966e-05	-96.5332	0.0100187	-0.00113993	0.00995364	-24.644	3.58051	3.25438	1.493	0.25438	0.115882	0.279532	24.4915	3969.7	8714.13	9575.73	-65.5085	0.0000000E+000	0.0000000E+000	0.0000000E+000	65.5085	0.0000000E+000	0.0000000E+000	0.0000000E+000	-65.5085	0.0000000E+000	0.0000000E+000	0.0000000E+000	-24.4915	0.0000000E+000	0.0000000E+000	0.0000000E+000	24.4915	2.19516	65.5085	4.99862e-07	-5.17069e-07	-6.03082e-10	-5.16466e-07	0.287747	160505	187.204	160318
3163.08	3.59137	1.71405	3.97943	-25.5137	5.44367	0.288019	-0.0239699	29.3553	5.44617	1	10	0.00513729	0.00129096	0	1.95892e-06	-7.75924e-06	7.85195e-06	-146.495	0.00608226	-0.00507163	0.00335744	-25.5889	3.97631	3.5863	1.71741	0.226787	0.108238	0.251292	25.5137	5446.17	11411.1	12644.1	-64.4863	0.0000000E+000	0.0000000E+000	0.0000000E+000	64.4863	0.0000000E+000	0.0000000E+000	0.0000000E+000	-64.4863	0.0000000E+000	0.0000000E+000	0.0000000E+000	-25.5137	0.0000000E+000	0.0000000E+000	0.0000000E+000	25.5137	2.09525	64.4863	-4.82027e-06	-6.90377e-06	1.85988e-10	-6.90396e-06	0.288026	12015.9	0.323708	12016.2
2155.69	3.94436	1.95211	4.40099	-26.3313	5.89478	0.288046	-0.00979406	37.8208	7.4411	1	10	0.00505631	0.0011489	0	1.68363e-07	0.000202319	1.07879e-05	-88.2704	0.00938975	0.000283403	0.00938547	-26.4391	4.40541	3.94464	1.96149	0.203646	0.100787	0.227222	26.3313	7441.1	15035.2	16775.8	-63.6687	0.0000000E+000	0.0000000E+000	0.0000000E+000	63.6687	0.0000000E+000	0.0000000E+000	0.0000000E+000	-63.6687	0.0000000E+000	0.0000000E+000	0.0000000E+000	-26.3313	0.0000000E+000	0.0000000E+000	0.0000000E+000	26.3313	2.02057	63.6687	-1.79056e-06	-2.82114e-06	-1.98153e-09	-2.81916e-06	0.287844	29410.3	20.6573	29389.6
1468.59	4.29805	2.26116	4.85655	-27.7484	6.34612	0.288038	-0.00961891	47.9278	10.3895	1	10	0.00497534	0.00102446	0	-9.32619e-07	0.000412398	8.97876e-06	44.7208	0.0087644	0.00622749	-0.00616709	-27.6499	4.8592	4.30428	2.25499	0.182228	0.0958685	0.205907	27.7484	10389.5	19748.5	22314.7	-62.2516	0.0000000E+000	0.0000000E+000	0.0000000E+000	62.2516	0.0000000E+000	0.0000000E+000	0.0000000E+000	-62.2516	0.0000000E+000	0.0000000E+000	0.0000000E+000	-27.7484	0.0000000E+000	0.0000000E+000	0.0000000E+000	27.7484	1.90081	62.2516	-1.10098e-06	-2.77061e-06	-3.96681e-09	-2.76665e-06	0.287626	29945	42.8736	29902.1
1000.32	4.69226	2.69458	5.41092	-29.867	6.79682	0.288034	-0.00962263	59.046	14.643	1	10	0.00492561	0.00091031	0	-1.30116e-06	0.000125927	1.01291e-05	-141.509	0.0111271	-0.00870922	0.00692538	-29.9766	5.40682	4.68355	2.7015	0.160266	0.0920341	0.184812	29.867	14643	25498.9	29404.3	-60.133	0.0000000E+000	0.0000000E+000	0.0000000E+000	60.133	0.0000000E+000	0.0000000E+000	0.0000000E+000	-60.133	0.0000000E+000	0.0000000E+000	0.0000000E+000	-29.867	0.0000000E+000	0.0000000E+000	0.0000000E+000	29.867	1.74137	60.133	-3.68541e-07	-2.77164e-06	-1.21175e-09	-2.77043e-06	0.287908	29933	13.0865	29919.9
681.09	5.11514	3.30886	6.09206	-32.8978	7.2466	0.288033	-0.0103493	70.6216	20.8337	1	10	0.00489044	0.000802757	0	-2.7061e-06	-8.41514e-05	7.83986e-06	105.499	0.00976618	-0.00260979	-0.00941102	-32.8368	6.08476	5.11253	3.29945	0.137825	0.0891559	0.164148	32.8978	20833.7	32206.6	38357.6	-57.1022	0.0000000E+000	0.0000000E+000	0.0000000E+000	57.1022	0.0000000E+000	0.0000000E+000	0.0000000E+000	-57.1022	0.0000000E+000	0.0000000E+000	0.0000000E+000	-32.8978	0.0000000E+000	0.0000000E+000	0.0000000E+000	32.8978	1.54589	57.1022	-1.40494e-06	-2.98094e-06	8.7091e-10	-2.98181e-06	0.288117	27831.1	8.13111	27839.2
463.961	5.61486	4.18052	7.00024	-36.6694	7.69937	0.288025	-0.0102189	82.0557	29.2646	1	10	0.00486215	0.000694569	0	-3.68237e-06	0.000316907	4.41102e-06	-83.3734	0.00635073	0.000732864	0.0063083	-36.7072	7.0046	5.61559	4.18682	0.114581	0.0853108	0.142852	36.6694	29264.6	39305.4	49003.4	-53.3306	0.0000000E+000	0.0000000E+000	0.0000000E+000	53.3306	0.0000000E+000	0.0000000E+000	0.0000000E+000	-53.3306	0.0000000E+000	0.0000000E+000	0.0000000E+000	-36.6694	0.0000000E+000	0.0000000E+000	0.0000000E+000	36.6694	1.3431	53.3306	-9.76266e-07	-2.9433e-06	-3.23844e-09	-2.94006e-06	0.287708	28185.5	31.0119	28154.5
316.316	6.25591	5.39471	8.26071	-40.7725	8.147	0.288044	-0.0095034	93.2676	39.7771	1	10	0.00484078	0.000586	0	-4.69618e-06	8.77309e-05	8.46316e-06	-6.25983	0.0144423	0.0143561	0.00157475	-40.7158	8.27262	6.27027	5.39629	0.091676	0.0790558	0.121055	40.7725	39777.1	46126.9	60909	-49.2275	0.0000000E+000	0.0000000E+000	0.0000000E+000	49.2275	0.0000000E+000	0.0000000E+000	0.0000000E+000	-49.2275	0.0000000E+000	0.0000000E+000	0.0000000E+000	-40.7725	0.0000000E+000	0.0000000E+000	0.0000000E+000	40.7725	1.15964	49.2275	-1.01382e-06	-2.73739e-06	-8.33742e-10	-2.73656e-06	0.287956	30309.5	9.23153	30300.3
215.345	7.16137	7.07615	10.0676	-44.657	8.59655	0.288036	-0.00916801	104.445	51.5975	1	10	0.00483273	0.000480026	0	-5.32685e-06	8.77309e-05	8.2554e-06	-35.8343	0.0171978	0.0139425	0.0100683	-44.6421	10.0846	7.17532	7.08622	0.0706548	0.069814	0.0993283	44.657	51597.5	52218.9	73410.6	-45.343	0.0000000E+000	0.0000000E+000	0.0000000E+000	45.343	0.0000000E+000	0.0000000E+000	0.0000000E+000	-45.343	0.0000000E+000	0.0000000E+000	0.0000000E+000	-44.657	0.0000000E+000	0.0000000E+000	0.0000000E+000	44.657	1.01204	45.343	-6.30665e-07	-2.64072e-06	-8.04318e-10	-2.63992e-06	0.287949	31417.6	9.56925	31408
146.737	8.58207	9.24312	12.613	-47.1238	9.04247	0.288033	-0.0115306	117.344	63.0177	1	10	0.0048248	0.000382527	0	-6.04779e-06	0.000202319	7.37659e-06	109.86	0.0192838	-0.00655122	-0.0181369	-47.0895	12.5952	8.57552	9.22498	0.0539457	0.058101	0.0792834	47.1238	63017.7	58510.8	85992.7	-42.8762	0.0000000E+000	0.0000000E+000	0.0000000E+000	42.8762	0.0000000E+000	0.0000000E+000	0.0000000E+000	-42.8762	0.0000000E+000	0.0000000E+000	0.0000000E+000	-47.1238	0.0000000E+000	0.0000000E+000	0.0000000E+000	47.1238	0.928482	42.8762	-7.20939e-07	-3.32121e-06	-2.33287e-09	-3.31888e-06	0.287831	24979.8	17.5462	24962.3
100.032	10.6621	11.9596	16.0222	-48.2829	9.49377	0.288027	-0.0102673	133.034	74.1229	1	10	0.00481379	0.000300444	0	-7.49848e-06	0.000164123	8.21326e-06	-119.421	0.0273371	-0.0134288	0.0238114	-48.3754	16.0311	10.6486	11.9834	0.0415331	0.0465877	0.0624132	48.2829	74122.9	66080.8	99302	-41.7171	0.0000000E+000	0.0000000E+000	0.0000000E+000	41.7171	0.0000000E+000	0.0000000E+000	0.0000000E+000	-41.7171	0.0000000E+000	0.0000000E+000	0.0000000E+000	-48.2829	0.0000000E+000	0.0000000E+000	0.0000000E+000	48.2829	0.891503	41.7171	-1.45069e-06	-2.95727e-06	-1.68511e-09	-2.95559e-06	0.287863	28052.7	15.985	28036.7
68.104	14.0552	15.1357	20.6553	-47.1198	10.2074	0.288078	-0.00432197	154.399	82.9066	1	11	0.0048313	0.000233901	0	-8.80034e-06	0.000183221	5.97049e-06	-22.225	0.0255257	0.0236292	0.00965496	-47.09	20.6784	14.0789	15.1454	0.032944	0.0354766	0.0484138	47.1198	82906.6	76988.2	113140	-42.8802	0.0000000E+000	0.0000000E+000	0.0000000E+000	42.8802	0.0000000E+000	0.0000000E+000	0.0000000E+000	-42.8802	0.0000000E+000	0.0000000E+000	0.0000000E+000	-47.1198	0.0000000E+000	0.0000000E+000	0.0000000E+000	47.1198	0.928614	42.8802	-1.30185e-06	-1.24507e-06	-7.91877e-10	-1.24427e-06	0.287895	66654.4	42.3929	66612
46.4415	18.815	18.0652	26.0836	-43.8354	10.6436	0.288064	-0.00474801	189.701	90.9957	1	11	0.00482509	0.000184985	0	-9.25913e-06	-7.75924e-06	6.0244e-06	-10.0302	0.0325669	0.0320692	0.00567208	-43.7956	26.1107	18.847	18.0709	0.0276546	0.0265526	0.0383382	43.8354	90995.7	94772.2	131385	-46.1646	0.0000000E+000	0.0000000E+000	0.0000000E+000	46.1646	0.0000000E+000	0.0000000E+000	0.0000000E+000	-46.1646	0.0000000E+000	0.0000000E+000	0.0000000E+000	-43.8354	0.0000000E+000	0.0000000E+000	0.0000000E+000	43.8354	1.0415	46.1646	-4.58797e-07	-1.36773e-06	3.6841e-11	-1.36777e-06	0.288072	60670.5	1.63421	60672.1
31.6296	24.8513	20.1268	31.9793	-39.0036	11.0736	0.28807	-0.00483754	250.007	99.0291	1	11	0.00481419	0.000150541	0	-9.87137e-06	0.000125927	6.99235e-06	111.015	0.0464482	-0.0166571	-0.0433587	-38.9619	31.9391	24.8347	20.0834	0.0243003	0.0196805	0.0312702	39.0036	99029.1	122275	157347	-50.9964	0.0000000E+000	0.0000000E+000	0.0000000E+000	50.9964	0.0000000E+000	0.0000000E+000	0.0000000E+000	-50.9964	0.0000000E+000	0.0000000E+000	0.0000000E+000	-39.0036	0.0000000E+000	0.0000000E+000	0.0000000E+000	39.0036	1.23474	50.9964	-6.12237e-07	-1.39355e-06	-6.09177e-10	-1.39294e-06	0.287945	59548.9	26.0312	59522.9
21.5517	31.5562	20.7675	37.7768	-33.3494	11.4945	0.288069	-0.00504571	355.593	107.467	1	11	0.00481279	0.000127401	0	-1.05222e-05	0.000240515	9.6031e-06	-139.079	0.0753771	-0.056956	0.0493733	-33.4595	37.7564	31.4993	20.8169	0.0221124	0.0145524	0.0264713	33.3494	107467	163295	195485	-56.6506	0.0000000E+000	0.0000000E+000	0.0000000E+000	56.6506	0.0000000E+000	0.0000000E+000	0.0000000E+000	-56.6506	0.0000000E+000	0.0000000E+000	0.0000000E+000	-33.3494	0.0000000E+000	0.0000000E+000	0.0000000E+000	33.3494	1.5195	56.6506	-6.50786e-07	-1.45351e-06	-1.21357e-09	-1.4523e-06	0.287828	57091.7	47.6672	57044.1
14.6852	37.9597	19.9733	42.8937	-27.752	11.9552	0.288066	-0.00419812	542.616	117.653	1	11	0.00481722	0.000112306	0	-1.15544e-05	3.04368e-05	3.54386e-06	-38.7014	0.0315554	0.0246263	0.0197304	-27.76	42.9247	37.9844	19.993	0.0206317	0.0108558	0.0233134	27.752	117653	223603	252667	-62.248	0.0000000E+000	0.0000000E+000	0.0000000E+000	62.248	0.0000000E+000	0.0000000E+000	0.0000000E+000	-62.248	0.0000000E+000	0.0000000E+000	0.0000000E+000	-27.752	0.0000000E+000	0.0000000E+000	0.0000000E+000	27.752	1.90053	62.248	-1.03222e-06	-1.20934e-06	-1.27777e-10	-1.20921e-06	0.288036	68618	7.25011	68610.7
10.0032	43.4735	18.0872	47.086	-22.5897	12.4058	0.288066	-0.00424811	879.652	129.798	1	11	0.00481195	0.000102195	0	-1.18956e-05	0.000374201	7.27599e-06	95.942	0.0711971	-0.00737048	-0.0708146	-22.5136	47.052	43.4661	18.0163	0.0196084	0.00815805	0.0212377	22.5897	129798	311977	337901	-67.4102	0.0000000E+000	0.0000000E+000	0.0000000E+000	67.4102	0.0000000E+000	0.0000000E+000	0.0000000E+000	-67.4102	0.0000000E+000	0.0000000E+000	0.0000000E+000	-22.5897	0.0000000E+000	0.0000000E+000	0.0000000E+000	22.5897	2.40356	67.4102	-3.4125e-07	-1.22374e-06	-1.58965e-09	-1.22215e-06	0.287692	67810.5	88.0866	67722.4
6.81719	47.8212	15.8132	50.3679	-18.2977	12.7455	0.288073	-0.00455812	1476.37	145.522	1	11	0.00480298	9.5358e-05	0	-1.29262e-05	4.95349e-05	6.60463e-06	-50.3916	0.0692614	0.0441567	0.0533604	-18.3395	50.4265	47.8653	15.8666	0.0188501	0.00623324	0.0198539	18.2977	145522	440076	463512	-71.7023	0.0000000E+000	0.0000000E+000	0.0000000E+000	71.7023	0.0000000E+000	0.0000000E+000	0.0000000E+000	-71.7023	0.0000000E+000	0.0000000E+000	0.0000000E+000	-18.2977	0.0000000E+000	0.0000000E+000	0.0000000E+000	18.2977	3.02412	71.7023	-1.03055e-06	-1.31307e-06	-2.25786e-10	-1.31285e-06	0.288023	63199.9	10.8674	63189
4.63925	51.3864	13.8845	53.2292	-15.1202	13.2305	0.288081	-0.00396234	2470.82	168.114	1	11	0.00480347	9.02413e-05	0	-1.25334e-05	3.04368e-05	1.18604e-05	56.544	0.13143	0.072457	-0.109653	-14.986	53.2707	51.4589	13.7749	0.0181363	0.0049004	0.0187867	15.1202	168114	622187	644499	-74.8798	0.0000000E+000	0.0000000E+000	0.0000000E+000	74.8798	0.0000000E+000	0.0000000E+000	0.0000000E+000	-74.8798	0.0000000E+000	0.0000000E+000	0.0000000E+000	-15.1202	0.0000000E+000	0.0000000E+000	0.0000000E+000	15.1202	3.70099	74.8798	3.92817e-07	-1.14148e-06	-1.20601e-10	-1.14135e-06	0.28805	72704.6	7.68152	72696.9
3.1604	54.3928	11.8881	55.6768	-12.3287	13.9234	0.288067	-0.00384576	4236.09	193.127	1	11	0.0048117	8.64221e-05	0	-1.25157e-05	0.000125927	3.77334e-06	-6.95141	0.0436618	0.0433408	0.00528428	-12.3245	55.7203	54.4362	11.8934	0.0175466	0.00383499	0.0179608	12.3287	193127	883632	904491	-77.6713	0.0000000E+000	0.0000000E+000	0.0000000E+000	77.6713	0.0000000E+000	0.0000000E+000	0.0000000E+000	-77.6713	0.0000000E+000	0.0000000E+000	0.0000000E+000	-12.3287	0.0000000E+000	0.0000000E+000	0.0000000E+000	12.3287	4.57539	77.6713	1.76675e-08	-1.10784e-06	-4.84285e-10	-1.10735e-06	0.287941	74905	32.7443	74872.3
2.15577	56.8191	10.3759	57.7587	-10.349	15.4372	0.288078	-0.00303023	7115.26	229.62	1	12	0.00481596	8.33806e-05	0	-1.47924e-05	6.86329e-05	3.24835e-06	-172.32	0.0389581	-0.0386086	0.00520626	-10.3609	57.7217	56.7805	10.3811	0.0170317	0.00311023	0.0173134	10.349	229620	1.25741e+06	1.27821e+06	-79.651	0.0000000E+000	0.0000000E+000	0.0000000E+000	79.651	0.0000000E+000	0.0000000E+000	0.0000000E+000	-79.651	0.0000000E+000	0.0000000E+000	0.0000000E+000	-10.349	0.0000000E+000	0.0000000E+000	0.0000000E+000	10.349	5.47605	79.651	-2.27668e-06	-8.72945e-07	-2.07974e-10	-8.72737e-07	0.28801	95068.1	22.6494	95045.4
1.46631	58.851	8.9038	59.5208	-8.60325	16.8974	0.288086	-0.00283442	12190.4	272.793	1	12	0.00481288	8.08604e-05	0	-1.76567e-05	0.000183221	4.69463e-06	0.967182	0.0580585	0.0580502	-0.00098001	-8.59397	59.578	58.9091	8.90282	0.0166118	0.00251326	0.0168009	8.60325	272792	1.80306e+06	1.82358e+06	-81.3968	0.0000000E+000	0.0000000E+000	0.0000000E+000	81.3968	0.0000000E+000	0.0000000E+000	0.0000000E+000	-81.3968	0.0000000E+000	0.0000000E+000	0.0000000E+000	-8.60325	0.0000000E+000	0.0000000E+000	0.0000000E+000	8.60325	6.60966	81.3968	-2.86435e-06	-8.16557e-07	-5.19326e-10	-8.16038e-07	0.287903	101638	64.6414	101574
1.00006	60.627	7.80776	61.1277	-7.33836	19.026	0.288091	-0.00280902	20382.9	332.539	1	12	0.00481272	7.87322e-05	0	-1.98492e-05	0.000164123	3.18722e-06	38.5138	0.0404819	0.0316753	-0.0252082	-7.31114	61.1559	60.6587	7.78255	0.0162252	0.00208954	0.0163592	7.33836	332539	2.58215e+06	2.60348e+06	-82.6616	0.0000000E+000	0.0000000E+000	0.0000000E+000	82.6616	0.0000000E+000	0.0000000E+000	0.0000000E+000	-82.6616	0.0000000E+000	0.0000000E+000	0.0000000E+000	-7.33836	0.0000000E+000	0.0000000E+000	0.0000000E+000	7.33836	7.76497	82.6616	-2.19247e-06	-8.09255e-07	-4.61026e-10	-8.08794e-07	0.287927	102559	58.4271	102501
0.681362	62.0814	6.98008	62.4726	-6.41507	22.1382	0.288087	-0.0029861	33464.3	417.756	1	12	0.00481748	7.71135e-05	0	-2.07454e-05	0.000221417	4.04221e-06	-30.2901	0.052419	0.0452629	0.026439	-6.43451	62.5206	62.1267	7.00652	0.0159068	0.00178847	0.016007	6.41507	417757	3.71556e+06	3.73897e+06	-83.5849	0.0000000E+000	0.0000000E+000	0.0000000E+000	83.5849	0.0000000E+000	0.0000000E+000	0.0000000E+000	-83.5849	0.0000000E+000	0.0000000E+000	0.0000000E+000	-6.41507	0.0000000E+000	0.0000000E+000	0.0000000E+000	6.41507	8.89409	83.5849	-8.96246e-07	-8.60257e-07	-6.61174e-10	-8.59596e-07	0.287866	96476.1	74.1493	96402
0.464091	63.2128	6.30973	63.5269	-5.70023	26.6947	0.288083	-0.00286622	54350.9	536.183	1	12	0.00481281	7.57602e-05	0	-1.9784e-05	0.000202319	2.89307e-06	44.3494	0.0381872	0.0273072	-0.0266941	-5.67384	63.5514	63.2401	6.28303	0.0156635	0.00156349	0.0157414	5.70023	536183	5.37164e+06	5.39834e+06	-84.2998	0.0000000E+000	0.0000000E+000	0.0000000E+000	84.2998	0.0000000E+000	0.0000000E+000	0.0000000E+000	-84.2998	0.0000000E+000	0.0000000E+000	0.0000000E+000	-5.70023	0.0000000E+000	0.0000000E+000	0.0000000E+000	5.70023	10.0183	84.2998	9.61442e-07	-8.25709e-07	-5.79891e-10	-8.25129e-07	0.287881	100510	70.5875	100439
0.316193	64.3348	5.92546	64.6071	-5.2623	33.3682	0.28808	-0.00257842	84946.5	714.545	1	12	0.00481674	7.45543e-05	0	-1.84119e-05	4.95349e-05	2.94912e-06	4.18051	0.0395566	0.0394514	-0.00288364	-5.25655	64.6461	64.3742	5.92258	0.0154129	0.00141959	0.0154782	5.2623	714545	7.75806e+06	7.7909e+06	-84.7377	0.0000000E+000	0.0000000E+000	0.0000000E+000	84.7377	0.0000000E+000	0.0000000E+000	0.0000000E+000	-84.7377	0.0000000E+000	0.0000000E+000	0.0000000E+000	-5.2623	0.0000000E+000	0.0000000E+000	0.0000000E+000	5.2623	10.8573	84.7377	1.37206e-06	-7.42791e-07	-1.27722e-10	-7.42663e-07	0.288031	111728	19.2114	111708
0.215268	65.3666	5.91605	65.6338	-5.1715	43.1616	0.28809	-0.0020885	124971	1015.35	1	12	0.00481284	7.33287e-05	0	-2.01176e-05	-6.50534e-05	2.20465e-06	20.4401	0.0300654	0.0281724	-0.0104997	-5.16016	65.6609	65.3948	5.90555	0.015174	0.00137333	0.0152361	5.1715	1.01535e+06	1.12187e+07	1.12645e+07	-84.8285	0.0000000E+000	0.0000000E+000	0.0000000E+000	84.8285	0.0000000E+000	0.0000000E+000	0.0000000E+000	-84.8285	0.0000000E+000	0.0000000E+000	0.0000000E+000	-5.1715	0.0000000E+000	0.0000000E+000	0.0000000E+000	5.1715	11.049	84.8285	-1.70565e-06	-6.01676e-07	1.35864e-10	-6.01812e-07	0.288155	137941	31.1483	137972
0.146929	66.5254	6.26839	66.8201	-5.38283	57.4989	0.288076	-0.00169935	172805	1520.74	1	12	0.00481805	7.21049e-05	0	-3.08638e-05	0.000469692	4.04141e-06	3.50317	0.056049	0.0559443	-0.0034248	-5.37541	66.8755	66.5814	6.26496	0.0148996	0.00140392	0.0149656	5.38283	1.52074e+06	1.61394e+07	1.62109e+07	-84.6172	0.0000000E+000	0.0000000E+000	0.0000000E+000	84.6172	0.0000000E+000	0.0000000E+000	0.0000000E+000	-84.6172	0.0000000E+000	0.0000000E+000	0.0000000E+000	-5.38283	0.0000000E+000	0.0000000E+000	0.0000000E+000	5.38283	10.6128	84.6172	-1.07462e-05	-4.89542e-07	-7.9817e-10	-4.88744e-07	0.287607	169522	276.395	169245
0.0999041	67.415	7.06741	67.7844	-5.98471	78.5762	0.288078	-0.00137016	225412	2450.4	1	12	0.00481399	7.10192e-05	0	-5.51081e-05	-7.75924e-06	1.36846e-06	-33.67	0.0192688	0.0160364	0.0106828	-5.99227	67.8015	67.431	7.07809	0.0146722	0.00153816	0.0147527	5.98471	2.4504e+06	2.3374e+07	2.35021e+07	-84.0153	0.0000000E+000	0.0000000E+000	0.0000000E+000	84.0153	0.0000000E+000	0.0000000E+000	0.0000000E+000	-84.0153	0.0000000E+000	0.0000000E+000	0.0000000E+000	-5.98471	0.0000000E+000	0.0000000E+000	0.0000000E+000	5.98471	9.53886	84.0153	-2.42444e-05	-3.94712e-07	1.06314e-11	-3.94723e-07	0.288086	210252	5.66304	210258
0.0680626	68.631	8.16247	69.1147	-6.78249	109.504	0.288082	-0.00104413	286477	3995.7	1	12	0.00481608	6.96825e-05	0	-9.30393e-05	4.95349e-05	8.87687e-07	114.256	0.012739	-0.00523342	-0.0116144	-6.77344	69.1081	68.6258	8.15086	0.0143675	0.00170876	0.0144687	6.78249	3.9957e+06	3.35963e+07	3.38331e+07	-83.2175	0.0000000E+000	0.0000000E+000	0.0000000E+000	83.2175	0.0000000E+000	0.0000000E+000	0.0000000E+000	-83.2175	0.0000000E+000	0.0000000E+000	0.0000000E+000	-6.78249	0.0000000E+000	0.0000000E+000	0.0000000E+000	6.78249	8.40811	83.2175	-3.79312e-05	-3.00794e-07	-5.17207e-11	-3.00742e-07	0.288032	275907	47.4414	275859
0.0464052	70.4462	9.6265	71.1009	-7.7813	154.855	0.288077	-0.00117282	356275	6530.88	1	12	0.00481324	6.76959e-05	0	-0.000141673	0.000164123	1.90597e-06	-61.4468	0.0281549	0.0134573	0.0247305	-7.79957	71.1176	70.4597	9.65123	0.013935	0.00190423	0.0140645	7.7813	6.53088e+06	4.77926e+07	4.82368e+07	-82.2187	0.0000000E+000	0.0000000E+000	0.0000000E+000	82.2187	0.0000000E+000	0.0000000E+000	0.0000000E+000	-82.2187	0.0000000E+000	0.0000000E+000	0.0000000E+000	-7.7813	0.0000000E+000	0.0000000E+000	0.0000000E+000	7.7813	7.31794	82.2187	-4.86335e-05	-3.37863e-07	-1.92487e-10	-3.3767e-07	0.287913	245628	139.939	245488
0.0315922	72.613	11.8443	73.5727	-9.26421	221.459	0.288076	-0.00120912	425336	11023.4	1	12	0.00481416	6.54341e-05	0	-0.000179609	0.000412398	1.54021e-06	6.11089	0.0235383	0.0234046	-0.00250573	-9.25935	73.5954	72.6364	11.8418	0.0134147	0.00218814	0.013592	9.26421	1.10234e+07	6.75805e+07	6.84737e+07	-80.7358	0.0000000E+000	0.0000000E+000	0.0000000E+000	80.7358	0.0000000E+000	0.0000000E+000	0.0000000E+000	-80.7358	0.0000000E+000	0.0000000E+000	0.0000000E+000	-9.26421	0.0000000E+000	0.0000000E+000	0.0000000E+000	9.26421	6.13065	80.7358	-3.79357e-05	-3.48318e-07	-4.98638e-10	-3.47819e-07	0.287663	238252	341.073	237911
0.0215268	74.8739	14.6109	76.2861	-11.0419	319.198	0.288076	-0.00112277	506016	18562.1	1	12	0.00481218	6.30807e-05	0	-0.000176869	-4.59553e-05	9.06872e-07	-80.938	0.0143764	0.00226434	0.0141969	-11.0521	76.2911	74.8761	14.6251	0.0128659	0.00251065	0.0131085	11.0419	1.85621e+07	9.51218e+07	9.6916e+07	-78.9581	0.0000000E+000	0.0000000E+000	0.0000000E+000	78.9581	0.0000000E+000	0.0000000E+000	0.0000000E+000	-78.9581	0.0000000E+000	0.0000000E+000	0.0000000E+000	-11.0419	0.0000000E+000	0.0000000E+000	0.0000000E+000	11.0419	5.12453	78.9581	2.73954e-06	-3.23443e-07	5.15973e-11	-3.23495e-07	0.288122	256576	40.9302	256616
0.0146812	77.3178	17.7304	79.3247	-12.9156	462.499	0.288069	-0.00081947	611423	30546.4	1	12	0.00481424	6.06903e-05	0	-0.000107777	0.000164123	1.7059e-06	-0.845615	0.0281083	0.0281053	0.000414829	-12.9114	79.3522	77.3459	17.7308	0.0122875	0.00281774	0.0126064	12.9156	3.05464e+07	1.33205e+08	1.36663e+08	-77.0844	0.0000000E+000	0.0000000E+000	0.0000000E+000	77.0844	0.0000000E+000	0.0000000E+000	0.0000000E+000	-77.0844	0.0000000E+000	0.0000000E+000	0.0000000E+000	-12.9156	0.0000000E+000	0.0000000E+000	0.0000000E+000	12.9156	4.36076	77.0844	6.90923e-05	-2.36064e-07	-1.34494e-10	-2.35929e-07	0.287904	351530	200.28	351330
0.0100092	80.4352	21.4002	83.2333	-14.8987	672.681	0.288072	-0.000484059	743025	49118.6	1	12	0.00481422	5.78401e-05	0	2.43368e-05	0.000183221	1.87065e-06	4.25727	0.0323417	0.0322525	-0.00240089	-14.8914	83.2639	80.4674	21.3978	0.0116105	0.00308904	0.0120144	14.8987	4.91186e+07	1.84618e+08	1.9104e+08	-75.1013	0.0000000E+000	0.0000000E+000	0.0000000E+000	75.1013	0.0000000E+000	0.0000000E+000	0.0000000E+000	-75.1013	0.0000000E+000	0.0000000E+000	0.0000000E+000	-14.8987	0.0000000E+000	0.0000000E+000	0.0000000E+000	14.8987	3.75861	75.1013	0.000132113	-1.39444e-07	-8.86898e-11	-1.39355e-07	0.287888	595117	378.51	594739