File: txt/19513_R316_UA718_SOC00_C07.mpt
EC-Lab ASCII FILE
Nb header lines : 65

Potentio Electrochemical Impedance Spectroscopy

Run on channel : 7 (SN 66126)
User :
CE vs. WE compliance from -10 V to 10 V
Electrode connection : standard
Potential control : Ewe
Ewe ctrl range : min = -10.00 V, max = 10.00 V
Safety Limits :
	Do not start on E overload
Acquisition started on : 12/04/2025 15:43:10.705
Technique started on : 12/04/2025 15:43:12.759
Loaded Setting File :  NONE
Saved on :
	File : 19513_R316_UA718_SOC00_C07.mpr
	Directory : C:\Users\Celltest\OneDrive - store-dot.com\Documents\EC-Lab\Data\Charmaine\
	Host : 169.254.61.224
Device : VMP-3e (SN .003165)
Address : USB
EC-LAB for windows v11.62 (software)
Internet server v27.00 (firmware)
Command interpretor v12.03 (firmware)
Electrode material :
Initial state :
Electrolyte :
Comments :
Electrode surface area : 0.001 cm²
Characteristic mass : 0.001 g
Equivalent Weight : 0.000 g/eq.
Density : 0.000 g/cm3
Volume (V) : 0.001 cm³
Record Ece
Cycle Definition : Charge/Discharge alternance
Mode                Single sine
E (V)               0.0000
vs.                 Eoc
tE (h:m:s)          0:00:0.0000
record              0
dI                  0.000
unit dI             mA
dt (s)              0.000
fi                  100.000
unit fi             kHz
ff                  10.000
unit ff             mHz
Nd                  6
Points              per decade
spacing             Logarithmic
Va (mV)             5.0
pw                  0.10
Na                  2
corr                0
E range min (V)     -10.000
E range max (V)     10.000
I Range             Auto
Bandwidth           5
nc cycles           0
goto Ns'            0
nr cycles           0
inc. cycle          0

freq/Hz	Re(Z)/Ohm	-Im(Z)/Ohm	|Z|/Ohm	Phase(Z)/deg	time/s	<Ewe>/V	<I>/mA	Cs/µF	Cp/µF	cycle number	I Range	|Ewe|/V	|I|/A	Ns	(Q-Qo)/mA.h	<Ece>/V	|Ece|/V	Phase(Zce)/deg	|Zce|/Ohm	Re(Zce)/Ohm	-Im(Zce)/Ohm	Phase(Zwe-ce)/deg	|Zwe-ce|/Ohm	Re(Zwe-ce)/Ohm	-Im(Zwe-ce)/Ohm	Re(Y)/Ohm-1	Im(Y)/Ohm-1	|Y|/Ohm-1	Phase(Y)/deg	Re(C)/nF	Im(C)/nF	|C|/nF	Phase(C)/deg	Re(M)	Im(M)	|M|	Phase(M)/deg	Re(Permittivity)	Im(Permittivity)	|Permittivity|	Phase(Permittivity)/deg	Re(Resistivity)/Ohm.cm	Im(Resistivity)/Ohm.cm	|Resistivity|/Ohm.cm	Phase(Resistivity)/deg	Re(Conductivity)/mS/cm	Im(Conductivity)/mS/cm	|Conductivity|/mS/cm	Phase(Conductivity)/deg	Tan(Delta)	Loss Angle(Delta)/deg	dq/mA.h	Pwe/W	Pce/W	Pwe-ce/W	<Ewe-Ece>/V	Rwe/Ohm	Rce/Ohm	Rwe-ce/Ohm		Ewe-Ece/V
100004	1.69806	0.62025	1.80779	-20.0657	2.05355	0.285121	0.0773839	2.56589	0.302046	1	9	0.00494623	0.00273606	0	1.16767e-05	-9.43052e-05	4.45534e-05	82.3967	0.0162838	0.00215458	-0.0161406	-19.5608	1.80435	1.70022	0.604109	0.519583	0.189788	0.55316	20.0657	302.046	826.912	880.349	-69.9343	0.0000000E+000	0.0000000E+000	0.0000000E+000	69.9343	0.0000000E+000	0.0000000E+000	0.0000000E+000	-69.9343	0.0000000E+000	0.0000000E+000	0.0000000E+000	-20.0657	0.0000000E+000	0.0000000E+000	0.0000000E+000	20.0657	2.73771	69.9343	1.16767e-05	2.20638e-05	-7.29771e-09	2.20711e-05	0.285215	3684.5	1.21867	3685.72
68132	1.86355	0.704068	1.99211	-20.6971	2.43654	0.285124	0.0700856	3.31783	0.414434	1	9	0.00547648	0.00274908	0	2.15713e-05	3.92227e-05	2.52895e-05	67.9657	0.00919928	0.00345122	-0.00852736	-20.4326	1.99235	1.867	0.695541	0.469583	0.177414	0.50198	20.6971	414.434	1096.93	1172.61	-69.3029	0.0000000E+000	0.0000000E+000	0.0000000E+000	69.3029	0.0000000E+000	0.0000000E+000	0.0000000E+000	-69.3029	0.0000000E+000	0.0000000E+000	0.0000000E+000	-20.6971	0.0000000E+000	0.0000000E+000	0.0000000E+000	20.6971	2.64683	69.3029	9.89466e-06	1.99831e-05	2.74895e-09	1.99803e-05	0.285084	4068.22	0.55964	4067.66
46420.4	2.04176	0.787231	2.18827	-21.0848	2.81953	0.285119	0.0710165	4.35522	0.563652	1	9	0.00544049	0.00248621	0	3.43215e-05	9.6449e-05	1.51481e-05	15.9847	0.00609286	0.00585728	-0.00167785	-20.9889	2.19314	2.04762	0.785553	0.426386	0.164399	0.456982	21.0848	563.652	1461.89	1566.79	-68.9152	0.0000000E+000	0.0000000E+000	0.0000000E+000	68.9152	0.0000000E+000	0.0000000E+000	0.0000000E+000	-68.9152	0.0000000E+000	0.0000000E+000	0.0000000E+000	-21.0848	0.0000000E+000	0.0000000E+000	0.0000000E+000	21.0848	2.5936	68.9152	1.27502e-05	2.02482e-05	6.84947e-09	2.02413e-05	0.285023	4014.83	1.35812	4013.47
31621.1	2.24181	0.877584	2.40746	-21.3785	3.20455	0.285138	0.0752242	5.73527	0.762102	1	9	0.00538268	0.00223583	0	3.93551e-05	-0.00032321	1.62116e-05	43.11	0.00725079	0.00529339	-0.0049552	-21.2229	2.41059	2.2471	0.872629	0.386795	0.151415	0.415375	21.3785	762.102	1946.81	2090.66	-68.6215	0.0000000E+000	0.0000000E+000	0.0000000E+000	68.6215	0.0000000E+000	0.0000000E+000	0.0000000E+000	-68.6215	0.0000000E+000	0.0000000E+000	0.0000000E+000	-21.3785	0.0000000E+000	0.0000000E+000	0.0000000E+000	21.3785	2.55453	68.6215	5.03359e-06	2.14493e-05	-2.43132e-08	2.14736e-05	0.285462	3790.52	4.29663	3794.81
21544.7	2.46238	0.958129	2.64222	-21.2614	3.58756	0.285133	0.0680004	7.71003	1.01384	1	9	0.00530249	0.00200684	0	5.089e-05	-7.52298e-05	1.4675e-05	39.2437	0.00731251	0.00566326	-0.00462604	-21.1236	2.64582	2.46804	0.953503	0.35271	0.137242	0.37847	21.2614	1013.84	2605.54	2795.84	-68.7386	0.0000000E+000	0.0000000E+000	0.0000000E+000	68.7386	0.0000000E+000	0.0000000E+000	0.0000000E+000	-68.7386	0.0000000E+000	0.0000000E+000	0.0000000E+000	-21.2614	0.0000000E+000	0.0000000E+000	0.0000000E+000	21.2614	2.56998	68.7386	1.15349e-05	1.93891e-05	-5.11565e-09	1.93942e-05	0.285208	4193.1	1.10631	4194.21
14678.6	2.6693	1.05391	2.86982	-21.5455	3.97053	0.285138	0.0726176	10.288	1.38749	1	9	0.00521609	0.00181757	0	6.20241e-05	7.73736e-05	1.44171e-05	50.6751	0.00793208	0.00502669	-0.00613598	-21.3948	2.87225	2.67432	1.04778	0.324106	0.127966	0.348454	21.5455	1387.49	3514.17	3778.16	-68.4545	0.0000000E+000	0.0000000E+000	0.0000000E+000	68.4545	0.0000000E+000	0.0000000E+000	0.0000000E+000	-68.4545	0.0000000E+000	0.0000000E+000	0.0000000E+000	-21.5455	0.0000000E+000	0.0000000E+000	0.0000000E+000	21.5455	2.53275	68.4545	1.11341e-05	2.07061e-05	5.61869e-09	2.07004e-05	0.285061	3926.57	1.06549	3925.5
10002.2	2.92532	1.16362	3.14826	-21.6914	4.35355	0.285136	0.0684472	13.6746	1.86807	1	9	0.00521974	0.00165798	0	6.69801e-05	5.82982e-05	5.84158e-06	134.596	0.00352332	-0.00247374	-0.00250887	-21.6655	3.14503	2.92285	1.16111	0.295144	0.1174	0.317636	21.6914	1868.07	4696.31	5054.21	-68.3086	0.0000000E+000	0.0000000E+000	0.0000000E+000	68.3086	0.0000000E+000	0.0000000E+000	0.0000000E+000	-68.3086	0.0000000E+000	0.0000000E+000	0.0000000E+000	-21.6914	0.0000000E+000	0.0000000E+000	0.0000000E+000	21.6914	2.51399	68.3086	4.95594e-06	1.95168e-05	3.99035e-09	1.95128e-05	0.285078	4165.78	0.851725	4164.93
6810.42	3.15981	1.22034	3.38728	-21.1168	4.73656	0.285129	0.0601808	19.1499	2.48556	1	9	0.00503184	0.00148551	0	7.25339e-05	1.07189e-06	0.000121468	-77.8167	0.081768	0.0172563	0.0799264	-22.2576	3.43285	3.17707	1.30026	0.275398	0.10636	0.295223	21.1168	2485.56	6435.86	6899.15	-68.8832	0.0000000E+000	0.0000000E+000	0.0000000E+000	68.8832	0.0000000E+000	0.0000000E+000	0.0000000E+000	-68.8832	0.0000000E+000	0.0000000E+000	0.0000000E+000	-21.1168	0.0000000E+000	0.0000000E+000	0.0000000E+000	21.1168	2.5893	68.8832	5.55383e-06	1.71593e-05	6.45074e-11	1.71593e-05	0.285128	4737.88	0.0178112	4737.87
4646	3.44874	1.4221	3.73044	-22.4089	5.00161	0.285112	0.0538506	24.0886	3.50066	1	9	0.00515193	0.00138105	0	7.60389e-05	-0.000361361	2.09185e-05	5.27274	0.0151468	0.0150827	-0.00139194	-22.3012	3.74386	3.46382	1.4207	0.247823	0.10219	0.268065	22.4089	3500.66	8489.49	9182.93	-67.5911	0.0000000E+000	0.0000000E+000	0.0000000E+000	67.5911	0.0000000E+000	0.0000000E+000	0.0000000E+000	-67.5911	0.0000000E+000	0.0000000E+000	0.0000000E+000	-22.4089	0.0000000E+000	0.0000000E+000	0.0000000E+000	22.4089	2.42511	67.5911	3.50504e-06	1.53534e-05	-1.94595e-08	1.53729e-05	0.285473	5294.49	6.71043	5301.2
3163.08	3.80337	1.60458	4.12799	-22.8741	5.58362	0.285078	-0.00646567	31.358	4.738	1	10	0.00518242	0.00125543	0	7.88561e-05	-0.000227833	7.43132e-06	-42.1534	0.00591932	0.00438829	0.00397256	-22.9012	4.13358	3.80776	1.60855	0.223199	0.094164	0.242249	22.8741	4738	11230.6	12189.1	-67.1259	0.0000000E+000	0.0000000E+000	0.0000000E+000	67.1259	0.0000000E+000	0.0000000E+000	0.0000000E+000	-67.1259	0.0000000E+000	0.0000000E+000	0.0000000E+000	-22.8741	0.0000000E+000	0.0000000E+000	0.0000000E+000	22.8741	2.37032	67.1259	2.81721e-06	-1.84322e-06	1.4731e-09	-1.84469e-06	0.285305	44090.9	35.2373	44126.2
2155.69	4.13055	1.82064	4.514	-23.7866	6.03578	0.285073	-0.00496168	40.5518	6.59682	1	10	0.00512961	0.00113638	0	7.91035e-05	-0.00032321	6.94277e-06	48.0496	0.00610956	0.00408416	-0.00454383	-23.713	4.51591	4.13464	1.8161	0.202715	0.0893513	0.221533	23.7866	6596.82	14966.5	16355.8	-66.2134	0.0000000E+000	0.0000000E+000	0.0000000E+000	66.2134	0.0000000E+000	0.0000000E+000	0.0000000E+000	-66.2134	0.0000000E+000	0.0000000E+000	0.0000000E+000	-23.7866	0.0000000E+000	0.0000000E+000	0.0000000E+000	23.7866	2.26874	66.2134	2.47315e-07	-1.41444e-06	1.60367e-09	-1.41604e-06	0.285396	57454.9	65.1413	57520.1
1468.59	4.48173	2.11305	4.95489	-25.2429	6.48711	0.285067	-0.00525951	51.2874	9.32741	1	10	0.00506084	0.00102138	0	7.85556e-05	-0.000285059	1.26595e-05	-74.1708	0.0123945	0.00338087	0.0119245	-25.3508	4.96304	4.48512	2.12497	0.182549	0.0860679	0.201821	25.2429	9327.41	19783.3	21871.9	-64.7571	0.0000000E+000	0.0000000E+000	0.0000000E+000	64.7571	0.0000000E+000	0.0000000E+000	0.0000000E+000	-64.7571	0.0000000E+000	0.0000000E+000	0.0000000E+000	-25.2429	0.0000000E+000	0.0000000E+000	0.0000000E+000	25.2429	2.12098	64.7571	-5.47887e-07	-1.49931e-06	1.49927e-09	-1.50081e-06	0.285352	54200.4	54.1989	54254.6
1000.32	4.86307	2.49537	5.46592	-27.1636	6.93882	0.285065	-0.00465642	63.7596	13.2889	1	10	0.00500231	0.000915181	0	7.72429e-05	-3.7079e-05	1.14291e-05	-36.7135	0.0124884	0.0100111	0.00746573	-27.1852	5.47824	4.87308	2.50284	0.162773	0.0835234	0.182952	27.1636	13288.9	25897.9	29108.3	-62.8364	0.0000000E+000	0.0000000E+000	0.0000000E+000	62.8364	0.0000000E+000	0.0000000E+000	0.0000000E+000	-62.8364	0.0000000E+000	0.0000000E+000	0.0000000E+000	-27.1636	0.0000000E+000	0.0000000E+000	0.0000000E+000	27.1636	1.94884	62.8364	-1.31265e-06	-1.32738e-06	1.72655e-10	-1.32755e-06	0.285102	61219.8	7.96298	61227.7
681.09	5.2731	3.04256	6.08792	-29.9848	7.38952	0.285082	-0.00515155	76.8027	19.183	1	10	0.00495198	0.000813411	0	7.70381e-05	-0.000342286	9.58565e-06	84.6469	0.0117845	0.00109942	-0.0117331	-29.8839	6.08302	5.2742	3.03083	0.142275	0.082092	0.16426	29.9848	19183	33246.3	38383.7	-60.0152	0.0000000E+000	0.0000000E+000	0.0000000E+000	60.0152	0.0000000E+000	0.0000000E+000	0.0000000E+000	-60.0152	0.0000000E+000	0.0000000E+000	0.0000000E+000	-29.9848	0.0000000E+000	0.0000000E+000	0.0000000E+000	29.9848	1.73311	60.0152	-2.04834e-07	-1.46861e-06	1.7633e-09	-1.47038e-06	0.285424	55339	66.4433	55405.5
463.961	5.76642	3.81472	6.91402	-33.4862	7.84132	0.285072	-0.00444051	89.9242	27.3741	1	10	0.00492355	0.000712111	0	7.6223e-05	-0.000208758	6.22778e-06	-61.1864	0.00874551	0.004215	0.00766275	-33.5199	6.92176	5.77063	3.82238	0.120627	0.0797997	0.144634	33.4862	27374.1	41379.4	49614.5	-56.5138	0.0000000E+000	0.0000000E+000	0.0000000E+000	56.5138	0.0000000E+000	0.0000000E+000	0.0000000E+000	-56.5138	0.0000000E+000	0.0000000E+000	0.0000000E+000	-33.4862	0.0000000E+000	0.0000000E+000	0.0000000E+000	33.4862	1.51162	56.5138	-8.15046e-07	-1.26586e-06	9.2699e-10	-1.26679e-06	0.285281	64198	47.0121	64245
316.316	6.38203	4.87212	8.02919	-37.3586	8.29105	0.285062	-0.00546799	103.272	38.0254	1	10	0.0048866	0.000608604	0	7.57978e-05	-0.000265984	5.58259e-06	157.681	0.00917279	-0.00848562	-0.00348342	-37.3756	8.02033	6.37355	4.86864	0.0989955	0.0755744	0.124546	37.3586	38025.4	49809.8	62665.3	-52.6414	0.0000000E+000	0.0000000E+000	0.0000000E+000	52.6414	0.0000000E+000	0.0000000E+000	0.0000000E+000	-52.6414	0.0000000E+000	0.0000000E+000	0.0000000E+000	-37.3586	0.0000000E+000	0.0000000E+000	0.0000000E+000	37.3586	1.30991	52.6414	-4.25244e-07	-1.55872e-06	1.4544e-09	-1.56017e-06	0.285328	52132.9	48.6438	52181.5
215.345	7.28548	6.31732	9.64296	-40.9289	8.7396	0.285066	-0.00590355	116.991	50.2109	1	10	0.0048799	0.000506059	0	7.47734e-05	7.73736e-05	5.1025e-06	-108.558	0.0100828	-0.00320894	0.00955857	-40.9843	9.6468	7.28227	6.32688	0.0783497	0.0679379	0.103703	40.9289	50210.9	57906	76643.6	-49.0711	0.0000000E+000	0.0000000E+000	0.0000000E+000	49.0711	0.0000000E+000	0.0000000E+000	0.0000000E+000	-49.0711	0.0000000E+000	0.0000000E+000	0.0000000E+000	-40.9289	0.0000000E+000	0.0000000E+000	0.0000000E+000	40.9289	1.15325	49.0711	-1.02443e-06	-1.6829e-06	-4.56779e-10	-1.68245e-06	0.284989	48287.2	13.1063	48274.1
146.737	8.6307	8.1761	11.8885	-43.4506	9.18652	0.285065	-0.00674862	132.658	62.7434	1	10	0.00486371	0.000409109	0	7.35892e-05	-9.43052e-05	8.87911e-06	-79.745	0.0217035	0.00386387	0.0213568	-43.5124	11.906	8.63456	8.19746	0.0610644	0.057848	0.0841146	43.4506	62743.4	66232	91232.7	-46.5494	0.0000000E+000	0.0000000E+000	0.0000000E+000	46.5494	0.0000000E+000	0.0000000E+000	0.0000000E+000	-46.5494	0.0000000E+000	0.0000000E+000	0.0000000E+000	-43.4506	0.0000000E+000	0.0000000E+000	0.0000000E+000	43.4506	1.0556	46.5494	-1.18416e-06	-1.92379e-06	6.3643e-10	-1.92443e-06	0.285159	42240.4	13.974	42254.4
100.032	10.661	10.4328	14.9165	-44.3802	9.63779	0.285067	-0.00513667	152.504	74.6021	1	10	0.00486492	0.000326145	0	7.32621e-05	-9.43052e-05	1.28198e-05	-50.9471	0.0393072	0.024765	0.0305246	-44.3974	14.9555	10.6858	10.4633	0.0479145	0.0468889	0.0670401	44.3802	74602.1	76233.9	106663	-45.6198	0.0000000E+000	0.0000000E+000	0.0000000E+000	45.6198	0.0000000E+000	0.0000000E+000	0.0000000E+000	-45.6198	0.0000000E+000	0.0000000E+000	0.0000000E+000	-44.3802	0.0000000E+000	0.0000000E+000	0.0000000E+000	44.3802	1.02187	45.6198	-3.27113e-07	-1.46429e-06	4.84415e-10	-1.46478e-06	0.285161	55496.4	18.3592	55514.7
68.104	13.6577	12.7736	18.7002	-43.0843	10.1005	0.285079	-0.0040608	182.951	85.3628	1	10	0.00485316	0.000259525	0	7.2958e-05	-0.000246909	5.1955e-06	-53.2931	0.0200193	0.011966	0.0160495	-43.0951	18.7199	13.6696	12.7896	0.0390558	0.0365276	0.0534754	43.0843	85362.8	91271	124969	-46.9157	0.0000000E+000	0.0000000E+000	0.0000000E+000	46.9157	0.0000000E+000	0.0000000E+000	0.0000000E+000	-46.9157	0.0000000E+000	0.0000000E+000	0.0000000E+000	-43.0843	0.0000000E+000	0.0000000E+000	0.0000000E+000	43.0843	1.06921	46.9157	-3.04134e-07	-1.15765e-06	1.00265e-09	-1.15865e-06	0.285326	70202.8	60.803	70263.6
46.4415	17.9012	14.9295	23.3097	-39.8278	10.7777	0.285103	-0.00279843	229.546	94.1639	1	11	0.00486345	0.000208645	0	7.21219e-05	-9.43052e-05	6.08291e-06	81.8977	0.0291544	0.00410905	-0.0288634	-39.7668	23.2944	17.9053	14.9006	0.0329465	0.0274771	0.0429006	39.8278	94163.9	112907	147020	-50.1722	0.0000000E+000	0.0000000E+000	0.0000000E+000	50.1722	0.0000000E+000	0.0000000E+000	0.0000000E+000	-50.1722	0.0000000E+000	0.0000000E+000	0.0000000E+000	-39.8278	0.0000000E+000	0.0000000E+000	0.0000000E+000	39.8278	1.19905	50.1722	-8.36088e-07	-7.97841e-07	2.63907e-10	-7.98105e-07	0.285197	101880	33.6993	101913
31.6296	22.8713	16.0487	27.9403	-35.0572	11.2076	0.285097	-0.0029192	313.535	103.444	1	11	0.00485321	0.000173699	0	7.17164e-05	-0.000208758	9.81825e-06	-51.4342	0.0565244	0.035238	0.044196	-35.0898	27.9945	22.9066	16.0929	0.0292975	0.0205579	0.0357906	35.0572	103444	147420	180093	-54.9428	0.0000000E+000	0.0000000E+000	0.0000000E+000	54.9428	0.0000000E+000	0.0000000E+000	0.0000000E+000	-54.9428	0.0000000E+000	0.0000000E+000	0.0000000E+000	-35.0572	0.0000000E+000	0.0000000E+000	0.0000000E+000	35.0572	1.42512	54.9428	-4.05515e-07	-8.32254e-07	6.09405e-10	-8.32864e-07	0.285306	97662.8	71.512	97734.3
21.5517	28.0722	15.9854	32.3045	-29.6589	11.6285	0.285098	-0.00313389	461.971	113.119	1	11	0.00485598	0.000150319	0	7.14538e-05	-0.000208758	5.47798e-06	-60.726	0.0364424	0.0178199	0.0317884	-29.6922	32.3357	28.09	16.0172	0.0268999	0.0153178	0.0309554	29.6589	113119	198650	228599	-60.3411	0.0000000E+000	0.0000000E+000	0.0000000E+000	60.3411	0.0000000E+000	0.0000000E+000	0.0000000E+000	-60.3411	0.0000000E+000	0.0000000E+000	0.0000000E+000	-29.6589	0.0000000E+000	0.0000000E+000	0.0000000E+000	29.6589	1.75611	60.3411	-2.62549e-07	-8.93467e-07	6.54225e-10	-8.94122e-07	0.285307	90972.4	66.6129	91039
14.6852	32.7064	14.9231	35.95	-24.5261	12.0892	0.285108	-0.00248496	726.243	125.142	1	11	0.00484575	0.000134791	0	7.16453e-05	-5.61544e-05	9.22977e-06	1.47662	0.0684745	0.0684517	-0.00176452	-24.4783	36.0116	32.7748	14.9214	0.0253066	0.0115468	0.0278164	24.5261	125142	274268	301469	-65.4739	0.0000000E+000	0.0000000E+000	0.0000000E+000	65.4739	0.0000000E+000	0.0000000E+000	0.0000000E+000	-65.4739	0.0000000E+000	0.0000000E+000	0.0000000E+000	-24.5261	0.0000000E+000	0.0000000E+000	0.0000000E+000	24.5261	2.19166	65.4739	1.91494e-07	-7.08483e-07	1.39541e-10	-7.08622e-07	0.285164	114733	22.5977	114756
10.0032	36.7185	13.3809	39.0806	-20.0226	12.5399	0.285105	-0.00263927	1189.04	139.393	1	11	0.00485387	0.000124201	0	7.14506e-05	2.01473e-05	5.00173e-06	27.05	0.0402711	0.0358658	-0.018314	-19.9794	39.1081	36.7544	13.3625	0.0240415	0.00876114	0.0255881	20.0226	139393	382510	407117	-69.9774	0.0000000E+000	0.0000000E+000	0.0000000E+000	69.9774	0.0000000E+000	0.0000000E+000	0.0000000E+000	-69.9774	0.0000000E+000	0.0000000E+000	0.0000000E+000	-20.0226	0.0000000E+000	0.0000000E+000	0.0000000E+000	20.0226	2.74411	69.9774	-1.94686e-07	-7.52471e-07	-5.31743e-11	-7.52418e-07	0.285085	108024	7.63366	108017
6.81719	39.8026	11.6584	41.4749	-16.3256	12.8795	0.28512	-0.00151808	2002.51	158.228	1	11	0.00484369	0.000116786	0	7.1751e-05	9.6449e-05	6.85322e-06	-11.2465	0.0586819	0.0575551	0.0114447	-16.3185	41.5334	39.8602	11.6699	0.0231388	0.00677749	0.024111	16.3256	158228	540201	562897	-73.6744	0.0000000E+000	0.0000000E+000	0.0000000E+000	73.6744	0.0000000E+000	0.0000000E+000	0.0000000E+000	-73.6744	0.0000000E+000	0.0000000E+000	0.0000000E+000	-16.3256	0.0000000E+000	0.0000000E+000	0.0000000E+000	16.3256	3.41406	73.6744	3.00346e-07	-4.32835e-07	-1.46417e-10	-4.32689e-07	0.285023	187816	63.5335	187752
4.63925	42.3702	10.2007	43.5808	-13.5364	13.3634	0.285109	-0.00197245	3363.13	184.251	1	11	0.00484984	0.000111284	0	7.02272e-05	-0.000265984	8.75499e-06	-64.597	0.0786727	0.0337492	0.0710661	-13.6168	43.6303	42.404	10.2717	0.0223085	0.00537078	0.0229459	13.5364	184251	765318	787184	-76.4636	0.0000000E+000	0.0000000E+000	0.0000000E+000	76.4636	0.0000000E+000	0.0000000E+000	0.0000000E+000	-76.4636	0.0000000E+000	0.0000000E+000	0.0000000E+000	-13.5364	0.0000000E+000	0.0000000E+000	0.0000000E+000	13.5364	4.15368	76.4636	-1.5238e-06	-5.62362e-07	5.2464e-10	-5.62887e-07	0.285375	144546	134.85	144681
3.1604	44.5428	8.85643	45.4147	-11.2454	14.0565	0.285116	-0.00157884	5686.17	216.244	1	11	0.00485029	0.0001068	0	6.94894e-05	-1.80035e-05	8.48097e-06	64.7164	0.07941	0.033916	-0.0718029	-11.1483	45.4341	44.5767	8.78463	0.0215965	0.00429403	0.0220193	11.2454	216244	1.08758e+06	1.10887e+06	-78.7546	0.0000000E+000	0.0000000E+000	0.0000000E+000	78.7546	0.0000000E+000	0.0000000E+000	0.0000000E+000	-78.7546	0.0000000E+000	0.0000000E+000	0.0000000E+000	-11.2454	0.0000000E+000	0.0000000E+000	0.0000000E+000	11.2454	5.02943	78.7546	-7.37744e-07	-4.50152e-07	2.84246e-11	-4.5018e-07	0.285134	180586	11.403	180597
2.15577	46.335	7.77744	46.9832	-9.52842	15.0601	0.285115	-0.00123741	9492.51	260.118	1	11	0.00485379	0.000103309	0	7.05531e-05	2.01473e-05	5.22268e-06	-115.171	0.0505539	-0.0215015	0.0457535	-9.5878	46.9696	46.3135	7.8232	0.0209906	0.00352332	0.0212842	9.52842	260118	1.54968e+06	1.57136e+06	-80.4716	0.0000000E+000	0.0000000E+000	0.0000000E+000	80.4716	0.0000000E+000	0.0000000E+000	0.0000000E+000	-80.4716	0.0000000E+000	0.0000000E+000	0.0000000E+000	-9.52842	0.0000000E+000	0.0000000E+000	0.0000000E+000	9.52842	5.95761	80.4716	1.06363e-06	-3.52805e-07	-2.49305e-11	-3.5278e-07	0.285095	230413	16.2818	230397
1.46631	47.8663	6.73899	48.3384	-8.01388	17.2475	0.285105	-0.00159225	16106.4	313.044	1	12	0.00485476	0.000100433	0	7.21323e-05	-1.80035e-05	9.48594e-07	-2.27339	0.00944505	0.00943761	0.000374664	-8.01276	48.3478	47.8757	6.73937	0.0204855	0.0028841	0.0206875	8.01388	313044	2.22352e+06	2.24544e+06	-81.9861	0.0000000E+000	0.0000000E+000	0.0000000E+000	81.9861	0.0000000E+000	0.0000000E+000	0.0000000E+000	-81.9861	0.0000000E+000	0.0000000E+000	0.0000000E+000	-8.01388	0.0000000E+000	0.0000000E+000	0.0000000E+000	8.01388	7.10289	81.9861	1.57922e-06	-4.5396e-07	2.86662e-11	-4.53988e-07	0.285123	179058	11.307	179069
1.00006	49.2033	5.9482	49.5616	-6.89305	19.3766	0.285109	-0.00126906	26755.1	385.379	1	12	0.00485514	9.79617e-05	0	7.1517e-05	0.000153675	2.95464e-06	36.3124	0.0301611	0.0243038	-0.017861	-6.86919	49.5835	49.2276	5.93034	0.0200311	0.00242156	0.0201769	6.89305	385379	3.18784e+06	3.21105e+06	-83.1069	0.0000000E+000	0.0000000E+000	0.0000000E+000	83.1069	0.0000000E+000	0.0000000E+000	0.0000000E+000	-83.1069	0.0000000E+000	0.0000000E+000	0.0000000E+000	-6.89305	0.0000000E+000	0.0000000E+000	0.0000000E+000	6.89305	8.27197	83.1069	-6.15272e-07	-3.61821e-07	-1.95023e-10	-3.61626e-07	0.284955	224661	121.094	224540
0.681362	50.2613	5.36449	50.5468	-6.09223	22.4884	0.285107	-0.000991853	43542.5	490.438	1	12	0.00485393	9.60284e-05	0	6.80235e-05	-0.000246909	2.06593e-06	26.8149	0.0215138	0.0192004	-0.00970506	-6.07899	50.5648	50.2805	5.35479	0.0196719	0.00209963	0.0197837	6.09223	490438	4.59504e+06	4.62114e+06	-83.9078	0.0000000E+000	0.0000000E+000	0.0000000E+000	83.9078	0.0000000E+000	0.0000000E+000	0.0000000E+000	-83.9078	0.0000000E+000	0.0000000E+000	0.0000000E+000	-6.09223	0.0000000E+000	0.0000000E+000	0.0000000E+000	6.09223	9.36926	83.9078	-3.49347e-06	-2.82784e-07	2.44897e-10	-2.83029e-07	0.285354	287449	248.937	287698
0.464091	51.2075	4.95133	51.4464	-5.52285	27.045	0.285107	-0.000962875	69262	641.549	1	12	0.00485464	9.43632e-05	0	6.0795e-05	-0.000208758	2.74258e-06	52.2186	0.0290641	0.0178062	-0.0229709	-5.49548	51.4619	51.2254	4.92836	0.0193475	0.00187074	0.0194377	5.52285	641549	6.63502e+06	6.66596e+06	-84.4772	0.0000000E+000	0.0000000E+000	0.0000000E+000	84.4772	0.0000000E+000	0.0000000E+000	0.0000000E+000	-84.4772	0.0000000E+000	0.0000000E+000	0.0000000E+000	-5.52285	0.0000000E+000	0.0000000E+000	0.0000000E+000	5.52285	10.3422	84.4772	-7.22851e-06	-2.74523e-07	2.01008e-10	-2.74724e-07	0.285316	296100	216.807	296317
0.316193	52.0979	4.77337	52.3161	-5.235	33.721	0.285108	-0.00111848	105449	877.853	1	12	0.0048546	9.27936e-05	0	5.16995e-05	-0.000208758	1.21278e-06	-2.06043	0.0130697	0.0130612	0.0004699	-5.2342	52.3292	52.111	4.77384	0.0190348	0.00174403	0.0191146	5.235	877853	9.58114e+06	9.62127e+06	-84.765	0.0000000E+000	0.0000000E+000	0.0000000E+000	84.765	0.0000000E+000	0.0000000E+000	0.0000000E+000	-84.765	0.0000000E+000	0.0000000E+000	0.0000000E+000	-5.235	0.0000000E+000	0.0000000E+000	0.0000000E+000	5.235	10.9143	84.765	-9.09549e-06	-3.18889e-07	2.33492e-10	-3.19122e-07	0.285317	254906	186.644	255093
0.215268	52.9479	4.97474	53.1811	-5.3675	43.5146	0.285109	-0.00131508	148618	1300.46	1	12	0.00485565	9.13042e-05	0	4.47607e-05	-0.000151531	4.54138e-06	-98.2589	0.049739	-0.00714485	0.0492232	-5.42102	53.1786	52.9407	5.02397	0.0187212	0.00175896	0.0188037	5.3675	1.30046e+06	1.38413e+07	1.39022e+07	-84.6325	0.0000000E+000	0.0000000E+000	0.0000000E+000	84.6325	0.0000000E+000	0.0000000E+000	0.0000000E+000	-84.6325	0.0000000E+000	0.0000000E+000	0.0000000E+000	-5.3675	0.0000000E+000	0.0000000E+000	0.0000000E+000	5.3675	10.6433	84.6325	-6.93881e-06	-3.74942e-07	1.99277e-10	-3.75141e-07	0.28526	216799	115.226	216914
0.146929	53.7543	5.41054	54.0259	-5.74764	57.8529	0.285107	-0.00141516	200204	2007.94	1	12	0.00485508	8.98658e-05	0	4.59036e-05	-0.000265984	1.33652e-06	21.5518	0.0148724	0.0138326	-0.00546325	-5.74041	54.0391	53.7681	5.40507	0.0184166	0.00185369	0.0185096	5.74764	2.00794e+06	1.99491e+07	2.00499e+07	-84.2524	0.0000000E+000	0.0000000E+000	0.0000000E+000	84.2524	0.0000000E+000	0.0000000E+000	0.0000000E+000	-84.2524	0.0000000E+000	0.0000000E+000	0.0000000E+000	-5.74764	0.0000000E+000	0.0000000E+000	0.0000000E+000	5.74764	9.93511	84.2524	1.14283e-06	-4.03472e-07	3.7641e-10	-4.03849e-07	0.285373	201466	187.953	201654
0.0999041	54.62	6.19113	54.9697	-6.46683	78.9301	0.28511	-0.00125566	257316	3264.07	1	12	0.00485477	8.83172e-05	0	6.02011e-05	-0.000113381	1.63258e-06	81.6858	0.0184854	0.002673	-0.0182911	-6.44758	54.9703	54.6226	6.17284	0.0180761	0.00204891	0.0181918	6.46683	3.26407e+06	2.87966e+07	2.8981e+07	-83.5332	0.0000000E+000	0.0000000E+000	0.0000000E+000	83.5332	0.0000000E+000	0.0000000E+000	0.0000000E+000	-83.5332	0.0000000E+000	0.0000000E+000	0.0000000E+000	-6.46683	0.0000000E+000	0.0000000E+000	0.0000000E+000	6.46683	8.82229	83.5332	1.42975e-05	-3.58002e-07	1.42368e-10	-3.58144e-07	0.285223	227060	90.2955	227150
0.0680626	55.7334	7.25864	56.2041	-7.42036	109.858	0.28511	-0.000999268	322149	5373.18	1	12	0.00485364	8.63575e-05	0	8.5654e-05	-7.52298e-05	1.94572e-06	9.96794	0.022531	0.0221909	-0.00390005	-7.4135	56.2256	55.7556	7.25474	0.0176433	0.00229784	0.0177923	7.42036	5.37318e+06	4.12564e+07	4.16048e+07	-82.5796	0.0000000E+000	0.0000000E+000	0.0000000E+000	82.5796	0.0000000E+000	0.0000000E+000	0.0000000E+000	-82.5796	0.0000000E+000	0.0000000E+000	0.0000000E+000	-7.42036	0.0000000E+000	0.0000000E+000	0.0000000E+000	7.42036	7.67821	82.5796	2.54529e-05	-2.84901e-07	7.51747e-11	-2.84976e-07	0.285185	285319	75.2849	285394
0.0464052	57.2657	8.68528	57.9206	-8.62411	155.208	0.285109	-0.000293565	394884	8879.14	1	12	0.00485407	8.38056e-05	0	0.000116982	-0.000170607	2.56123e-06	0.82715	0.0305615	0.0305583	-0.000441186	-8.61915	57.9508	57.2963	8.68484	0.0170698	0.00258891	0.017265	8.62411	8.87914e+06	5.85439e+07	5.92134e+07	-81.3759	0.0000000E+000	0.0000000E+000	0.0000000E+000	81.3759	0.0000000E+000	0.0000000E+000	0.0000000E+000	-81.3759	0.0000000E+000	0.0000000E+000	0.0000000E+000	-8.62411	0.0000000E+000	0.0000000E+000	0.0000000E+000	8.62411	6.59342	81.3759	3.13284e-05	-8.36978e-08	5.00842e-11	-8.37479e-08	0.285279	971195	581.156	971776
0.0315922	59.068	10.7709	60.042	-10.3342	221.814	0.285116	0.000401058	467723	15051.6	1	12	0.00485587	8.08745e-05	0	0.0001295	-0.000113381	2.18166e-06	-17.1664	0.0269758	0.0257741	0.00796184	-10.3372	60.0688	59.0938	10.7788	0.0163848	0.00298773	0.016655	10.3342	1.50516e+07	8.25434e+07	8.39045e+07	-79.6658	0.0000000E+000	0.0000000E+000	0.0000000E+000	79.6658	0.0000000E+000	0.0000000E+000	0.0000000E+000	-79.6658	0.0000000E+000	0.0000000E+000	0.0000000E+000	-10.3342	0.0000000E+000	0.0000000E+000	0.0000000E+000	10.3342	5.48404	79.6658	1.25174e-05	1.14348e-07	-4.54722e-11	1.14394e-07	0.28523	710910	282.704	711193
0.0215268	60.9151	13.3647	62.364	-12.3745	319.552	0.285109	0.000602211	553202	25405.7	1	12	0.00485505	7.78503e-05	0	8.79772e-05	1.07189e-06	2.3943e-06	34.2446	0.0307552	0.0254235	-0.0173068	-12.354	62.3851	60.9406	13.3473	0.0156624	0.00343629	0.0160349	12.3745	2.54057e+07	1.15797e+08	1.18552e+08	-77.6255	0.0000000E+000	0.0000000E+000	0.0000000E+000	77.6255	0.0000000E+000	0.0000000E+000	0.0000000E+000	-77.6255	0.0000000E+000	0.0000000E+000	0.0000000E+000	-12.3745	0.0000000E+000	0.0000000E+000	0.0000000E+000	12.3745	4.55793	77.6255	-4.15226e-05	1.71696e-07	6.45506e-13	1.71695e-07	0.285108	473437	1.77993	473435
0.0146812	63.0662	16.3791	65.1584	-14.5588	462.855	0.285115	0.000420046	661864	41822.4	1	12	0.00485415	7.44977e-05	0	-3.16611e-05	-5.61544e-05	1.8501e-06	-44.4399	0.0248344	0.0177314	0.017388	-14.5697	65.1799	63.0839	16.3965	0.0148544	0.00385789	0.0153472	14.5588	4.18224e+07	1.61033e+08	1.66375e+08	-75.4412	0.0000000E+000	0.0000000E+000	0.0000000E+000	75.4412	0.0000000E+000	0.0000000E+000	0.0000000E+000	-75.4412	0.0000000E+000	0.0000000E+000	0.0000000E+000	-14.5588	0.0000000E+000	0.0000000E+000	0.0000000E+000	14.5588	3.8504	75.4412	-0.000119638	1.19761e-07	-2.35874e-11	1.19785e-07	0.285171	678770	133.686	678904
0.0100092	65.9417	20.2867	68.9917	-17.1003	673.038	0.285119	6.88383e-06	783809	67770.4	1	12	0.00485211	7.03288e-05	0	-0.000215028	-0.000246909	1.28862e-06	-153.429	0.0183228	-0.0163876	0.0081958	-17.1108	68.9785	65.9253	20.2949	0.0138537	0.00426204	0.0144945	17.1003	6.77704e+07	2.20287e+08	2.30476e+08	-72.8997	0.0000000E+000	0.0000000E+000	0.0000000E+000	72.8997	0.0000000E+000	0.0000000E+000	0.0000000E+000	-72.8997	0.0000000E+000	0.0000000E+000	0.0000000E+000	-17.1003	0.0000000E+000	0.0000000E+000	0.0000000E+000	17.1003	3.25048	72.8997	-0.000183367	1.96271e-09	-1.69968e-12	1.96441e-09	0.285366	4.14186e+07	35867.9	4.14545e+07