File: txt/19510_R316_UA717_SOC00_C04.mpt
EC-Lab ASCII FILE
Nb header lines : 65

Potentio Electrochemical Impedance Spectroscopy

Run on channel : 4 (SN 66756)
User :
CE vs. WE compliance from -10 V to 10 V
Electrode connection : standard
Potential control : Ewe
Ewe ctrl range : min = -10.00 V, max = 10.00 V
Safety Limits :
	Do not start on E overload
Acquisition started on : 12/04/2025 15:42:40.739
Technique started on : 12/04/2025 15:42:42.465
Loaded Setting File :  C:\Users\Celltest\OneDrive - store-dot.com\Documents\EC-Lab\Data\@Biologic Test Protocols\anode half cell EIS SOC00.mps
Saved on :
	File : 19510_R316_UA717_SOC00_C04.mpr
	Directory : C:\Users\Celltest\OneDrive - store-dot.com\Documents\EC-Lab\Data\Charmaine\
	Host : 169.254.61.224
Device : VMP-3e (SN .003165)
Address : USB
EC-LAB for windows v11.62 (software)
Internet server v27.00 (firmware)
Command interpretor v12.03 (firmware)
Electrode material :
Initial state :
Electrolyte :
Comments :
Electrode surface area : 0.001 cm²
Characteristic mass : 0.001 g
Equivalent Weight : 0.000 g/eq.
Density : 0.000 g/cm3
Volume (V) : 0.001 cm³
Record Ece
Cycle Definition : Charge/Discharge alternance
Mode                Single sine
E (V)               0.0000
vs.                 Eoc
tE (h:m:s)          0:00:0.0000
record              0
dI                  0.000
unit dI             mA
dt (s)              0.000
fi                  100.000
unit fi             kHz
ff                  10.000
unit ff             mHz
Nd                  6
Points              per decade
spacing             Logarithmic
Va (mV)             5.0
pw                  0.10
Na                  2
corr                0
E range min (V)     -10.000
E range max (V)     10.000
I Range             Auto
Bandwidth           5
nc cycles           0
goto Ns'            0
nr cycles           0
inc. cycle          0

freq/Hz	Re(Z)/Ohm	-Im(Z)/Ohm	|Z|/Ohm	Phase(Z)/deg	time/s	<Ewe>/V	<I>/mA	Cs/µF	Cp/µF	cycle number	I Range	|Ewe|/V	|I|/A	Ns	(Q-Qo)/mA.h	<Ece>/V	|Ece|/V	Phase(Zce)/deg	|Zce|/Ohm	Re(Zce)/Ohm	-Im(Zce)/Ohm	Phase(Zwe-ce)/deg	|Zwe-ce|/Ohm	Re(Zwe-ce)/Ohm	-Im(Zwe-ce)/Ohm	Re(Y)/Ohm-1	Im(Y)/Ohm-1	|Y|/Ohm-1	Phase(Y)/deg	Re(C)/nF	Im(C)/nF	|C|/nF	Phase(C)/deg	Re(M)	Im(M)	|M|	Phase(M)/deg	Re(Permittivity)	Im(Permittivity)	|Permittivity|	Phase(Permittivity)/deg	Re(Resistivity)/Ohm.cm	Im(Resistivity)/Ohm.cm	|Resistivity|/Ohm.cm	Phase(Resistivity)/deg	Re(Conductivity)/mS/cm	Im(Conductivity)/mS/cm	|Conductivity|/mS/cm	Phase(Conductivity)/deg	Tan(Delta)	Loss Angle(Delta)/deg	dq/mA.h	Pwe/W	Pce/W	Pwe-ce/W	<Ewe-Ece>/V	Rwe/Ohm	Rce/Ohm	Rwe-ce/Ohm		Ewe-Ece/V
100004	1.24108	0.516875	1.34441	-22.6104	1.72553	0.271181	0.00762336	3.07906	0.455122	1	9	0.00475107	0.00353395	0	7.21522e-06	-0.000407112	3.1048e-05	83.5583	0.00878563	0.000985686	-0.00873016	-22.2502	1.34199	1.24206	0.508145	0.686652	0.285972	0.743822	22.6104	455.122	1092.8	1183.79	-67.3896	0.0000000E+000	0.0000000E+000	0.0000000E+000	67.3896	0.0000000E+000	0.0000000E+000	0.0000000E+000	-67.3896	0.0000000E+000	0.0000000E+000	0.0000000E+000	-22.6104	0.0000000E+000	0.0000000E+000	0.0000000E+000	22.6104	2.40111	67.3896	7.21522e-06	2.06731e-06	-3.10357e-09	2.07041e-06	0.271588	35572.3	53.4033	35625.7
68132	1.3806	0.588832	1.50092	-23.0985	2.23253	0.271179	0.00594498	3.96714	0.610581	1	9	0.00504371	0.00336041	0	-4.55706e-06	-0.000349783	2.69542e-05	42.6831	0.00802111	0.00589643	-0.00543785	-22.8199	1.50423	1.38649	0.583394	0.612844	0.261381	0.666257	23.0985	610.581	1431.59	1556.36	-66.9015	0.0000000E+000	0.0000000E+000	0.0000000E+000	66.9015	0.0000000E+000	0.0000000E+000	0.0000000E+000	-66.9015	0.0000000E+000	0.0000000E+000	0.0000000E+000	-23.0985	0.0000000E+000	0.0000000E+000	0.0000000E+000	23.0985	2.34464	66.9015	-1.17723e-05	1.61216e-06	-2.07945e-09	1.61423e-06	0.271529	45614.7	58.8366	45673.6
46420.4	1.52916	0.6546	1.66338	-23.1747	2.61755	0.271183	0.0108682	5.23764	0.811159	1	9	0.00549667	0.00330452	0	-2.41103e-06	0.000147076	1.97026e-05	23.3628	0.00596232	0.00547349	-0.00236437	-23.026	1.66748	1.53463	0.652236	0.552676	0.236589	0.601186	23.1747	811.159	1894.88	2061.2	-66.8253	0.0000000E+000	0.0000000E+000	0.0000000E+000	66.8253	0.0000000E+000	0.0000000E+000	0.0000000E+000	-66.8253	0.0000000E+000	0.0000000E+000	0.0000000E+000	-23.1747	0.0000000E+000	0.0000000E+000	0.0000000E+000	23.1747	2.33602	66.8253	2.14604e-06	2.94728e-06	1.59846e-09	2.94568e-06	0.271036	24951.9	13.5327	24938.4
31621.1	1.69078	0.732697	1.84271	-23.4294	3.12452	0.271185	0.0104952	6.86939	1.08605	1	9	0.00502341	0.00272609	0	-3.97881e-06	0.000185296	8.07761e-06	21.9845	0.00296307	0.00274762	-0.00110924	-23.3638	1.8448	1.69353	0.731588	0.497934	0.215779	0.542678	23.4294	1086.05	2506.19	2731.4	-66.5706	0.0000000E+000	0.0000000E+000	0.0000000E+000	66.5706	0.0000000E+000	0.0000000E+000	0.0000000E+000	-66.5706	0.0000000E+000	0.0000000E+000	0.0000000E+000	-23.4294	0.0000000E+000	0.0000000E+000	0.0000000E+000	23.4294	2.30762	66.5706	-1.56779e-06	2.84615e-06	1.94473e-09	2.8442e-06	0.270999	25838.8	17.6553	25821.2
21544.7	1.87619	0.809606	2.04342	-23.3409	3.50754	0.271176	0.00650442	9.12444	1.43232	1	9	0.00528384	0.00258579	0	-1.28019e-06	-0.000139573	1.15923e-05	15.7213	0.0044831	0.00431539	-0.00121474	-23.2619	2.0469	1.88051	0.808391	0.449327	0.193892	0.489376	23.3409	1432.32	3319.27	3615.12	-66.6591	0.0000000E+000	0.0000000E+000	0.0000000E+000	66.6591	0.0000000E+000	0.0000000E+000	0.0000000E+000	-66.6591	0.0000000E+000	0.0000000E+000	0.0000000E+000	-23.3409	0.0000000E+000	0.0000000E+000	0.0000000E+000	23.3409	2.31741	66.6591	2.69863e-06	1.76384e-06	-9.07842e-10	1.76475e-06	0.271316	41691.1	21.4582	41712.5
14678.6	2.05772	0.887918	2.24112	-23.3405	3.89053	0.271182	0.00471415	12.2113	1.91681	1	9	0.00521267	0.00232593	0	-2.35154e-06	7.06365e-05	5.12326e-06	73.01	0.00220268	0.000643632	-0.00210654	-23.2845	2.24088	2.05836	0.885812	0.409691	0.176784	0.446206	23.3405	1916.81	4442.14	4838.06	-66.6595	0.0000000E+000	0.0000000E+000	0.0000000E+000	66.6595	0.0000000E+000	0.0000000E+000	0.0000000E+000	-66.6595	0.0000000E+000	0.0000000E+000	0.0000000E+000	-23.3405	0.0000000E+000	0.0000000E+000	0.0000000E+000	23.3405	2.31747	66.6595	-1.07135e-06	1.27839e-06	3.32991e-10	1.27806e-06	0.271111	57525	14.9839	57510
10002.2	2.26463	0.982871	2.46872	-23.4613	4.27556	0.271188	0.00284927	16.1893	2.56611	1	9	0.00506038	0.0020498	0	-1.91248e-06	-0.000177793	7.38845e-06	-112.553	0.00360448	-0.00138243	0.00332883	-23.5449	2.46878	2.26325	0.9862	0.37158	0.161269	0.405068	23.4613	2566.11	5912.57	6445.42	-66.5387	0.0000000E+000	0.0000000E+000	0.0000000E+000	66.5387	0.0000000E+000	0.0000000E+000	0.0000000E+000	-66.5387	0.0000000E+000	0.0000000E+000	0.0000000E+000	-23.4613	0.0000000E+000	0.0000000E+000	0.0000000E+000	23.4613	2.3041	66.5387	4.39056e-07	7.72689e-07	-5.06581e-10	7.73195e-07	0.271366	95178	62.3994	95240.4
6810.42	2.49474	1.14069	2.74315	-24.5717	4.53455	0.271183	0.00329683	20.487	3.54252	1	9	0.00516086	0.00188136	0	-1.2989e-06	-4.40233e-05	0.000147465	82.5927	0.0783819	0.0101051	-0.0777278	-22.9945	2.72105	2.50484	1.06296	0.331532	0.151589	0.364544	24.5717	3542.52	7747.67	8519.15	-65.4284	0.0000000E+000	0.0000000E+000	0.0000000E+000	65.4284	0.0000000E+000	0.0000000E+000	0.0000000E+000	-65.4284	0.0000000E+000	0.0000000E+000	0.0000000E+000	-24.5717	0.0000000E+000	0.0000000E+000	0.0000000E+000	24.5717	2.18705	65.4284	6.13583e-07	8.94044e-07	-1.45137e-10	8.94189e-07	0.271227	82255.5	13.3532	82268.8
4646	2.72377	1.25722	2.99992	-24.7768	4.79962	0.271156	-0.00766858	27.2477	4.78555	1	9	0.00505456	0.0016849	0	-3.1579e-06	8.97464e-05	1.13914e-05	-37.6703	0.00676089	0.00535152	0.00413169	-24.8055	3.00651	2.72912	1.26135	0.302657	0.139698	0.333342	24.7768	4785.55	10367.9	11419.1	-65.2232	0.0000000E+000	0.0000000E+000	0.0000000E+000	65.2232	0.0000000E+000	0.0000000E+000	0.0000000E+000	-65.2232	0.0000000E+000	0.0000000E+000	0.0000000E+000	-24.7768	0.0000000E+000	0.0000000E+000	0.0000000E+000	24.7768	2.1665	65.2232	-1.859e-06	-2.07938e-06	-6.88227e-10	-2.07869e-06	0.271066	35359.3	11.7031	35347.6
3163.08	2.99867	1.42242	3.31893	-25.3774	5.17367	0.271062	-0.0170302	35.3737	6.49745	1	9	0.00495778	0.00149379	0	-4.2097e-06	-0.000349783	8.6887e-06	-16.798	0.00581656	0.00556836	0.00168097	-25.3625	3.32468	3.00424	1.42411	0.272228	0.129132	0.301302	25.3774	6497.45	13697.5	15160.4	-64.6226	0.0000000E+000	0.0000000E+000	0.0000000E+000	64.6226	0.0000000E+000	0.0000000E+000	0.0000000E+000	-64.6226	0.0000000E+000	0.0000000E+000	0.0000000E+000	-25.3774	0.0000000E+000	0.0000000E+000	0.0000000E+000	25.3774	2.10814	64.6226	-1.0518e-06	-4.61624e-06	5.95687e-09	-4.6222e-06	0.271412	15916.5	20.539	15937.1
2155.69	3.29257	1.63234	3.67499	-26.3706	5.86979	0.271118	0.000389442	45.2297	8.92342	1	10	0.00504462	0.00137269	0	-3.89185e-06	-0.000158683	6.39401e-06	-88.0108	0.00465802	0.000161686	0.00465521	-26.4344	3.67721	3.29274	1.637	0.243794	0.120864	0.272109	26.3706	8923.42	17999.3	20089.9	-63.6294	0.0000000E+000	0.0000000E+000	0.0000000E+000	63.6294	0.0000000E+000	0.0000000E+000	0.0000000E+000	-63.6294	0.0000000E+000	0.0000000E+000	0.0000000E+000	-26.3706	0.0000000E+000	0.0000000E+000	0.0000000E+000	26.3706	2.01709	63.6294	3.17851e-07	1.05585e-07	-6.17979e-11	1.05646e-07	0.271276	696169	407.462	696576
1468.59	3.59983	1.91378	4.07693	-27.9965	6.32106	0.271116	0.000117138	56.6276	12.478	1	10	0.00496863	0.00121872	0	-2.95208e-06	0.000185296	8.54343e-06	-66.7893	0.00701018	0.00276281	0.00644278	-28.0581	4.08239	3.60259	1.92022	0.216579	0.11514	0.245283	27.9965	12478	23471.2	26582	-62.0035	0.0000000E+000	0.0000000E+000	0.0000000E+000	62.0035	0.0000000E+000	0.0000000E+000	0.0000000E+000	-62.0035	0.0000000E+000	0.0000000E+000	0.0000000E+000	-27.9965	0.0000000E+000	0.0000000E+000	0.0000000E+000	27.9965	1.88101	62.0035	9.39766e-07	3.1758e-08	2.17052e-11	3.17363e-08	0.27093	2.3145e+06	1581.86	2.31292e+06
1000.32	3.90432	2.31383	4.53845	-30.6524	6.77181	0.271122	-0.000520727	68.7622	17.873	1	10	0.00489314	0.00107815	0	-3.52763e-06	3.24166e-05	9.79147e-06	-0.301823	0.00908172	0.0090816	4.78405e-05	-30.5945	4.54629	3.91341	2.31388	0.189553	0.112335	0.220339	30.6524	17873	30158.6	35056.9	-59.3476	0.0000000E+000	0.0000000E+000	0.0000000E+000	59.3476	0.0000000E+000	0.0000000E+000	0.0000000E+000	-59.3476	0.0000000E+000	0.0000000E+000	0.0000000E+000	-30.6524	0.0000000E+000	0.0000000E+000	0.0000000E+000	30.6524	1.68739	59.3476	-5.75542e-07	-1.4118e-07	-1.68802e-11	-1.41163e-07	0.271089	520660	62.2525	520597
681.09	4.26699	2.86214	5.138	-33.8522	7.22056	0.271125	-0.000155167	81.6441	25.3348	1	10	0.00484301	0.000942585	0	-2.82822e-06	0.000185296	9.47411e-06	92.2139	0.0100512	-0.000388276	-0.0100437	-33.7615	5.13209	4.2666	2.8521	0.161634	0.108418	0.194628	33.8522	25334.8	37770.2	45480.1	-56.1478	0.0000000E+000	0.0000000E+000	0.0000000E+000	56.1478	0.0000000E+000	0.0000000E+000	0.0000000E+000	-56.1478	0.0000000E+000	0.0000000E+000	0.0000000E+000	-33.8522	0.0000000E+000	0.0000000E+000	0.0000000E+000	33.8522	1.49084	56.1478	6.99408e-07	-4.20697e-08	-2.87519e-11	-4.2041e-08	0.27094	1.74731e+06	1194.17	1.74612e+06
463.961	4.69678	3.63596	5.93969	-37.7448	7.67236	0.27112	8.94822e-06	94.3453	35.3533	1	10	0.00480217	0.000808489	0	-2.40338e-06	3.24166e-05	7.01959e-06	72.6737	0.00868236	0.00258572	-0.00828839	-37.6663	5.93667	4.69937	3.62767	0.133129	0.10306	0.168359	37.7448	35353.3	45668	57753.1	-52.2552	0.0000000E+000	0.0000000E+000	0.0000000E+000	52.2552	0.0000000E+000	0.0000000E+000	0.0000000E+000	-52.2552	0.0000000E+000	0.0000000E+000	0.0000000E+000	-37.7448	0.0000000E+000	0.0000000E+000	0.0000000E+000	37.7448	1.29176	52.2552	4.24833e-07	2.42604e-09	2.90071e-13	2.42575e-09	0.271087	3.02987e+07	3622.68	3.02951e+07
316.316	5.28073	4.73859	7.09509	-41.9028	8.12009	0.271116	-0.000293202	106.182	47.3623	1	10	0.00477714	0.000673301	0	-2.88975e-06	-0.000235123	7.16382e-06	69.4872	0.0106398	0.00372838	-0.00996522	-41.8228	7.09122	5.28445	4.72863	0.1049	0.0941311	0.140942	41.9028	47362.3	52780.9	70915.5	-48.0972	0.0000000E+000	0.0000000E+000	0.0000000E+000	48.0972	0.0000000E+000	0.0000000E+000	0.0000000E+000	-48.0972	0.0000000E+000	0.0000000E+000	0.0000000E+000	-41.9028	0.0000000E+000	0.0000000E+000	0.0000000E+000	41.9028	1.11441	48.0972	-4.86366e-07	-7.94919e-08	6.89386e-11	-7.95609e-08	0.271351	924673	801.913	925475
215.345	6.12684	6.23878	8.74418	-45.5187	8.57058	0.271113	-0.000121619	118.464	60.3043	1	10	0.00475999	0.000544361	0	-3.28591e-06	-0.000120463	4.10762e-06	-121.572	0.00754576	-0.00395068	0.00642889	-45.5666	8.746	6.12289	6.24521	0.0801307	0.0815947	0.114362	45.5187	60304.3	59222.3	84521.5	-44.4813	0.0000000E+000	0.0000000E+000	0.0000000E+000	44.4813	0.0000000E+000	0.0000000E+000	0.0000000E+000	-44.4813	0.0000000E+000	0.0000000E+000	0.0000000E+000	-45.5187	0.0000000E+000	0.0000000E+000	0.0000000E+000	45.5187	0.982057	44.4813	-3.96161e-07	-3.29726e-08	1.46506e-11	-3.29872e-08	0.271233	2.22919e+06	990.493	2.23018e+06
146.737	7.45372	8.1477	11.0428	-47.5469	9.01649	0.271113	-0.00153536	133.12	72.4699	1	10	0.00475943	0.000431	0	-3.10496e-06	0.000147076	9.36617e-06	-12.778	0.0217313	0.0211931	0.00480641	-47.4827	11.0606	7.47491	8.1525	0.0611247	0.0668157	0.0905569	47.5469	72469.9	66297.3	98220.2	-42.4531	0.0000000E+000	0.0000000E+000	0.0000000E+000	42.4531	0.0000000E+000	0.0000000E+000	0.0000000E+000	-42.4531	0.0000000E+000	0.0000000E+000	0.0000000E+000	-47.5469	0.0000000E+000	0.0000000E+000	0.0000000E+000	47.5469	0.914825	42.4531	1.80955e-07	-4.16255e-07	-2.25815e-10	-4.16029e-07	0.270966	176580	95.7929	176484
100.032	9.46348	10.4256	14.0801	-47.7694	9.46781	0.271116	-0.000102974	152.609	83.6696	1	10	0.00474555	0.000337039	0	-3.3502e-06	-0.000139573	6.48545e-06	-131.363	0.0192424	-0.0127159	0.0144422	-47.8472	14.0823	9.45076	10.44	0.0477351	0.052588	0.0710221	47.7694	83669.6	75948.4	112999	-42.2306	0.0000000E+000	0.0000000E+000	0.0000000E+000	42.2306	0.0000000E+000	0.0000000E+000	0.0000000E+000	-42.2306	0.0000000E+000	0.0000000E+000	0.0000000E+000	-47.7694	0.0000000E+000	0.0000000E+000	0.0000000E+000	47.7694	0.907718	42.2306	-2.45247e-07	-2.7918e-08	1.43724e-11	-2.79323e-08	0.271256	2.63286e+06	1355.42	2.63422e+06
68.104	12.5711	12.9101	18.0195	-45.7623	9.93041	0.271108	0.000452822	181.016	92.9162	1	10	0.00475214	0.000263722	0	-3.24452e-06	0.000127966	1.42999e-05	77.6015	0.0542236	0.0116424	-0.0529589	-45.6181	17.9898	12.5827	12.8572	0.0387156	0.0397597	0.0554953	45.7623	92916.2	90476	129689	-44.2377	0.0000000E+000	0.0000000E+000	0.0000000E+000	44.2377	0.0000000E+000	0.0000000E+000	0.0000000E+000	-44.2377	0.0000000E+000	0.0000000E+000	0.0000000E+000	-45.7623	0.0000000E+000	0.0000000E+000	0.0000000E+000	45.7623	0.973738	44.2377	1.05687e-07	1.22764e-07	5.7946e-11	1.22706e-07	0.27098	598708	282.597	598425
46.4415	16.8224	15.0929	22.6006	-41.8982	10.6067	0.271127	0.0097692	227.06	101.262	1	11	0.00475342	0.000210323	0	-1.87897e-06	-0.000120463	9.83328e-06	-82.8665	0.0467534	0.00580593	0.0463915	-41.9758	22.6359	16.8282	15.1393	0.0329342	0.0295483	0.0442466	41.8982	101262	112865	151633	-48.1018	0.0000000E+000	0.0000000E+000	0.0000000E+000	48.1018	0.0000000E+000	0.0000000E+000	0.0000000E+000	-48.1018	0.0000000E+000	0.0000000E+000	0.0000000E+000	-41.8982	0.0000000E+000	0.0000000E+000	0.0000000E+000	41.8982	1.11459	48.1018	1.36554e-06	2.6487e-06	-1.17683e-09	2.64987e-06	0.271248	27753.2	12.3309	27765.6
31.6296	21.9605	16.1109	27.2365	-36.2649	11.0366	0.271136	0.0097998	312.325	109.281	1	11	0.00472852	0.00017361	0	-8.86666e-07	0.000127966	2.50925e-05	-113.958	0.144534	-0.0586914	0.132081	-36.5616	27.2677	21.9019	16.243	0.0296033	0.0217179	0.0367154	36.2649	109281	148959	184746	-53.7351	0.0000000E+000	0.0000000E+000	0.0000000E+000	53.7351	0.0000000E+000	0.0000000E+000	0.0000000E+000	-53.7351	0.0000000E+000	0.0000000E+000	0.0000000E+000	-36.2649	0.0000000E+000	0.0000000E+000	0.0000000E+000	36.2649	1.36309	53.7351	9.92305e-07	2.65707e-06	1.25404e-09	2.65582e-06	0.271008	27667.5	13.0581	27654.4
21.5517	27.2981	16.082	31.6831	-30.5034	11.4574	0.271142	0.00955431	459.195	118.31	1	11	0.00473842	0.000149556	0	1.0909e-07	-0.000426222	8.85628e-06	1.33794	0.0592169	0.0592008	-0.00138268	-30.447	31.7334	27.3573	16.0806	0.0271943	0.0160208	0.0315625	30.5034	118310	200824	233083	-59.4966	0.0000000E+000	0.0000000E+000	0.0000000E+000	59.4966	0.0000000E+000	0.0000000E+000	0.0000000E+000	-59.4966	0.0000000E+000	0.0000000E+000	0.0000000E+000	-30.5034	0.0000000E+000	0.0000000E+000	0.0000000E+000	30.5034	1.69743	59.4966	9.95756e-07	2.59057e-06	-4.07226e-09	2.59464e-06	0.271568	28379	44.6105	28423.6
14.6852	32.1332	14.7641	35.3627	-24.6771	11.9182	0.27115	0.0101688	734.065	127.955	1	11	0.00474451	0.000134167	0	7.40431e-07	-0.000177793	8.2289e-06	-83.4842	0.0613333	0.00695988	0.0609371	-24.7621	35.3945	32.1402	14.825	0.0256958	0.0118063	0.0282784	24.6771	127955	278487	306476	-65.3229	0.0000000E+000	0.0000000E+000	0.0000000E+000	65.3229	0.0000000E+000	0.0000000E+000	0.0000000E+000	-65.3229	0.0000000E+000	0.0000000E+000	0.0000000E+000	-24.6771	0.0000000E+000	0.0000000E+000	0.0000000E+000	24.6771	2.17644	65.3229	6.31341e-07	2.75726e-06	-1.80794e-09	2.75907e-06	0.271328	26665	17.4842	26682.5
10.0032	35.852	12.851	38.0856	-19.7201	12.3688	0.271151	0.00975018	1238.06	140.96	1	11	0.00472725	0.000124122	0	2.47008e-06	3.24166e-05	5.92293e-06	59.9718	0.0477187	0.0238797	-0.0413139	-19.6494	38.0942	35.8759	12.8097	0.0247167	0.00885964	0.0262566	19.7201	140960	393253	417754	-70.2799	0.0000000E+000	0.0000000E+000	0.0000000E+000	70.2799	0.0000000E+000	0.0000000E+000	0.0000000E+000	-70.2799	0.0000000E+000	0.0000000E+000	0.0000000E+000	-19.7201	0.0000000E+000	0.0000000E+000	0.0000000E+000	19.7201	2.78981	70.2799	1.72965e-06	2.64377e-06	3.16067e-10	2.64345e-06	0.271119	27809.9	3.32471	27806.5
6.81719	38.8584	10.9021	40.3588	-15.6719	12.7085	0.271156	0.0104568	2141.44	156.26	1	11	0.00473657	0.000117362	0	2.48517e-06	7.06365e-05	4.51835e-06	-66.3621	0.0384994	0.0154366	0.0352692	-15.7142	40.3832	38.8739	10.9374	0.0238566	0.00669318	0.0247777	15.6719	156260	556959	578464	-74.3281	0.0000000E+000	0.0000000E+000	0.0000000E+000	74.3281	0.0000000E+000	0.0000000E+000	0.0000000E+000	-74.3281	0.0000000E+000	0.0000000E+000	0.0000000E+000	-15.6719	0.0000000E+000	0.0000000E+000	0.0000000E+000	15.6719	3.56431	74.3281	1.50865e-08	2.83542e-06	7.3863e-10	2.83468e-06	0.271086	25931.1	6.75508	25924.4
4.63925	41.0998	9.14769	42.1055	-12.5479	13.1925	0.271145	0.00989754	3750.26	177.013	1	11	0.00473704	0.000112504	0	4.70627e-06	0.000127966	3.47662e-06	99.3958	0.0309022	-0.00504487	-0.0304876	-12.5089	42.094	41.0948	9.1172	0.0231826	0.00515981	0.0237499	12.5479	177013	795306	814767	-77.4521	0.0000000E+000	0.0000000E+000	0.0000000E+000	77.4521	0.0000000E+000	0.0000000E+000	0.0000000E+000	-77.4521	0.0000000E+000	0.0000000E+000	0.0000000E+000	-12.5479	0.0000000E+000	0.0000000E+000	0.0000000E+000	12.5479	4.49292	77.4521	2.22111e-06	2.68367e-06	1.26655e-09	2.6824e-06	0.271017	27395.2	12.9291	27382.3
3.1604	42.8484	7.76467	43.5462	-10.2713	13.8855	0.271154	0.0103486	6485.68	206.206	1	11	0.00473693	0.000108779	0	7.92363e-06	-0.000177793	4.3229e-06	11.2831	0.0397401	0.038972	-0.00777543	-10.2521	43.5832	42.8873	7.7569	0.0225961	0.0040947	0.0229641	10.2713	206206	1.13792e+06	1.15645e+06	-79.7287	0.0000000E+000	0.0000000E+000	0.0000000E+000	79.7287	0.0000000E+000	0.0000000E+000	0.0000000E+000	-79.7287	0.0000000E+000	0.0000000E+000	0.0000000E+000	-10.2713	0.0000000E+000	0.0000000E+000	0.0000000E+000	10.2713	5.51838	79.7287	3.21736e-06	2.80606e-06	-1.83991e-09	2.8079e-06	0.271332	26202	17.1804	26219.2
2.15577	44.3587	6.74146	44.8681	-8.64146	14.8892	0.271151	0.0107827	10951.3	247.228	1	11	0.00474508	0.000105756	0	1.05679e-05	-0.000177793	4.78105e-06	21.2499	0.0452082	0.0421344	-0.0163851	-8.61272	44.9073	44.4008	6.72508	0.0220346	0.00334873	0.0222876	8.64146	247228	1.62676e+06	1.64544e+06	-81.3585	0.0000000E+000	0.0000000E+000	0.0000000E+000	81.3585	0.0000000E+000	0.0000000E+000	0.0000000E+000	-81.3585	0.0000000E+000	0.0000000E+000	0.0000000E+000	-8.64146	0.0000000E+000	0.0000000E+000	0.0000000E+000	8.64146	6.57998	81.3585	2.64431e-06	2.92374e-06	-1.91708e-09	2.92565e-06	0.271329	25147	16.4888	25163.5
1.46631	45.4595	5.88076	45.8383	-7.371	17.0756	0.271155	0.0107653	18457	303.788	1	12	0.00473957	0.000103398	0	1.44637e-05	7.06365e-05	3.4471e-06	-69.6993	0.0333383	0.0115666	0.0312675	-7.40789	45.8538	45.4711	5.91203	0.0216355	0.00279883	0.0218158	7.371	303788	2.34834e+06	2.36791e+06	-82.629	0.0000000E+000	0.0000000E+000	0.0000000E+000	82.629	0.0000000E+000	0.0000000E+000	0.0000000E+000	-82.629	0.0000000E+000	0.0000000E+000	0.0000000E+000	-7.371	0.0000000E+000	0.0000000E+000	0.0000000E+000	7.371	7.73021	82.629	3.89577e-06	2.91906e-06	7.60421e-10	2.9183e-06	0.271085	25188	6.56151	25181.4
1.00006	46.5473	5.23347	46.8406	-6.41502	19.2066	0.271149	0.0102392	30409	379.61	1	12	0.00474054	0.000101206	0	1.84319e-05	-0.000120463	2.49119e-06	-86.4402	0.0246151	0.00152837	0.0245676	-6.44467	46.8449	46.5488	5.25804	0.0212153	0.00238531	0.021349	6.41502	379610	3.37631e+06	3.39758e+06	-83.585	0.0000000E+000	0.0000000E+000	0.0000000E+000	83.585	0.0000000E+000	0.0000000E+000	0.0000000E+000	-83.585	0.0000000E+000	0.0000000E+000	0.0000000E+000	-6.41502	0.0000000E+000	0.0000000E+000	0.0000000E+000	6.41502	8.89415	83.585	3.96819e-06	2.77636e-06	-1.23345e-09	2.77759e-06	0.271269	26481.3	11.7648	26493.1
0.681362	47.5275	4.73898	47.7632	-5.69415	22.3185	0.271168	0.00989367	49289.8	485.221	1	12	0.00473867	9.92118e-05	0	2.70215e-05	-2.49133e-05	1.64631e-06	1.80673	0.0165939	0.0165856	-0.000523174	-5.69155	47.7797	47.5441	4.73845	0.0208333	0.00207729	0.0209366	5.69415	485221	4.86632e+06	4.89045e+06	-84.3058	0.0000000E+000	0.0000000E+000	0.0000000E+000	84.3058	0.0000000E+000	0.0000000E+000	0.0000000E+000	-84.3058	0.0000000E+000	0.0000000E+000	0.0000000E+000	-5.69415	0.0000000E+000	0.0000000E+000	0.0000000E+000	5.69415	10.0291	84.3058	8.58961e-06	2.68284e-06	-2.46484e-10	2.68309e-06	0.271193	27408.2	2.51811	27410.7
0.464091	48.3525	4.49987	48.5614	-5.31684	26.8751	0.271147	0.00877596	76211	654.385	1	12	0.00473842	9.75758e-05	0	4.30487e-05	-0.000235123	2.89586e-06	-30.6778	0.0296781	0.0255247	0.0151421	-5.33183	48.5883	48.378	4.51501	0.0205039	0.00190817	0.0205925	5.31684	654385	7.03158e+06	7.06197e+06	-84.6832	0.0000000E+000	0.0000000E+000	0.0000000E+000	84.6832	0.0000000E+000	0.0000000E+000	0.0000000E+000	-84.6832	0.0000000E+000	0.0000000E+000	0.0000000E+000	-5.31684	0.0000000E+000	0.0000000E+000	0.0000000E+000	5.31684	10.7453	84.6832	1.60272e-05	2.37958e-06	-2.06343e-09	2.38164e-06	0.271382	30896.6	26.7917	30923.4
0.316193	49.2082	4.34484	49.3996	-5.04586	33.5501	0.271157	0.0083598	115849	896.179	1	12	0.00473527	9.58563e-05	0	6.75808e-05	8.97464e-05	1.3185e-06	-46.9612	0.0137549	0.00938765	0.0100534	-5.05651	49.4099	49.2176	4.3549	0.0201646	0.00178044	0.0202431	5.04586	896179	1.01498e+07	1.01893e+07	-84.9541	0.0000000E+000	0.0000000E+000	0.0000000E+000	84.9541	0.0000000E+000	0.0000000E+000	0.0000000E+000	-84.9541	0.0000000E+000	0.0000000E+000	0.0000000E+000	-5.04586	0.0000000E+000	0.0000000E+000	0.0000000E+000	5.04586	11.3256	84.9541	2.4532e-05	2.26682e-06	7.50262e-10	2.26607e-06	0.271068	32435.9	10.7355	32425.1
0.215268	50.0917	4.4226	50.2866	-5.04556	43.3426	0.271158	0.00779928	167172	1293.05	1	12	0.00474314	9.43222e-05	0	9.91302e-05	-0.000101353	1.43256e-06	-46.8095	0.015188	0.010395	0.0110733	-5.05709	50.2979	50.1021	4.43367	0.019809	0.00174893	0.019886	5.04556	1.29305e+06	1.46455e+07	1.47024e+07	-84.9544	0.0000000E+000	0.0000000E+000	0.0000000E+000	84.9544	0.0000000E+000	0.0000000E+000	0.0000000E+000	-84.9544	0.0000000E+000	0.0000000E+000	0.0000000E+000	-5.04556	0.0000000E+000	0.0000000E+000	0.0000000E+000	5.04556	11.3263	84.9544	3.15495e-05	2.11484e-06	-7.90482e-10	2.11563e-06	0.271259	34767	12.9952	34780
0.146929	50.9607	4.8121	51.1874	-5.39431	57.681	0.271155	0.00707728	225102	1989.4	1	12	0.00474052	9.26112e-05	0	0.000132235	-0.000196903	1.44517e-06	8.04234	0.0156047	0.0154512	-0.00218317	-5.39025	51.2025	50.9761	4.80992	0.0194496	0.00183658	0.0195361	5.39431	1.9894e+06	2.1068e+07	2.11617e+07	-84.6057	0.0000000E+000	0.0000000E+000	0.0000000E+000	84.6057	0.0000000E+000	0.0000000E+000	0.0000000E+000	-84.6057	0.0000000E+000	0.0000000E+000	0.0000000E+000	-5.39431	0.0000000E+000	0.0000000E+000	0.0000000E+000	5.39431	10.5901	84.6057	3.31048e-05	1.91904e-06	-1.39354e-09	1.92043e-06	0.271352	38313.4	27.8219	38341.2
0.0999041	51.7549	5.55016	52.0516	-6.12096	78.7582	0.271156	0.00624085	287033	3263.42	1	12	0.00473443	9.09564e-05	0	0.00015921	3.24166e-05	2.36468e-06	-63.4711	0.025998	0.011612	0.0232607	-6.14505	52.0657	51.7665	5.57342	0.0191022	0.0020485	0.0192117	6.12096	3.26342e+06	3.04312e+07	3.06057e+07	-83.879	0.0000000E+000	0.0000000E+000	0.0000000E+000	83.879	0.0000000E+000	0.0000000E+000	0.0000000E+000	-83.879	0.0000000E+000	0.0000000E+000	0.0000000E+000	-6.12096	0.0000000E+000	0.0000000E+000	0.0000000E+000	6.12096	9.32495	83.879	2.6975e-05	1.69224e-06	2.02307e-10	1.69204e-06	0.271123	43448.5	5.19426	43443.3
0.0680626	52.6143	6.53828	53.019	-7.08373	109.685	0.271159	0.00525896	357641	5438.92	1	12	0.00473879	8.93791e-05	0	0.000176537	-0.000273343	1.60423e-06	5.51206	0.0179486	0.0178656	-0.00172405	-7.0795	53.0365	52.6321	6.53656	0.0187172	0.00232595	0.0188612	7.08373	5.43892e+06	4.37676e+07	4.41042e+07	-82.9163	0.0000000E+000	0.0000000E+000	0.0000000E+000	82.9163	0.0000000E+000	0.0000000E+000	0.0000000E+000	-82.9163	0.0000000E+000	0.0000000E+000	0.0000000E+000	-7.08373	0.0000000E+000	0.0000000E+000	0.0000000E+000	7.08373	8.04711	82.9163	1.73275e-05	1.42601e-06	-1.4375e-09	1.42745e-06	0.271432	51561.4	51.9766	51613.3
0.0464052	53.6277	7.65472	54.1713	-8.12342	155.035	0.271156	0.00364786	448048	8946.32	1	12	0.00473684	8.7442e-05	0	0.000174524	-5.80336e-06	1.52328e-06	12.3285	0.0174205	0.0170187	-0.00371957	-8.11698	54.1876	53.6447	7.651	0.0182747	0.0026085	0.01846	8.12342	8.94632e+06	6.26765e+07	6.33118e+07	-81.8766	0.0000000E+000	0.0000000E+000	0.0000000E+000	81.8766	0.0000000E+000	0.0000000E+000	0.0000000E+000	-81.8766	0.0000000E+000	0.0000000E+000	0.0000000E+000	-8.12342	0.0000000E+000	0.0000000E+000	0.0000000E+000	8.12342	7.00584	81.8766	-2.01343e-06	9.89139e-07	-2.11698e-11	9.8916e-07	0.271162	74333	1.5909	74334.6
0.0315922	55.1561	9.31846	55.9377	-9.58941	221.641	0.271155	0.00204568	540625	15002.9	1	12	0.00473896	8.47185e-05	0	0.000167225	0.000242626	3.27525e-06	93.1868	0.0386604	-0.00214916	-0.0386006	-9.55078	55.9291	55.1539	9.27986	0.0176272	0.00297807	0.017877	9.58941	1.50029e+07	8.88024e+07	9.00608e+07	-80.4106	0.0000000E+000	0.0000000E+000	0.0000000E+000	80.4106	0.0000000E+000	0.0000000E+000	0.0000000E+000	-80.4106	0.0000000E+000	0.0000000E+000	0.0000000E+000	-9.58941	0.0000000E+000	0.0000000E+000	0.0000000E+000	9.58941	5.91901	80.4106	-7.2989e-06	5.54696e-07	4.96335e-10	5.542e-07	0.270912	132550	118.604	132432
0.0215268	56.9505	11.7874	58.1576	-11.6938	319.379	0.271155	0.000741261	627222	25766	1	12	0.00474154	8.15291e-05	0	0.00018826	1.33066e-05	3.12761e-06	-6.70818	0.0383619	0.0380993	0.00448115	-11.6905	58.1958	56.9886	11.7919	0.0168378	0.00348503	0.0171947	11.6938	2.57661e+07	1.24488e+08	1.27126e+08	-78.3062	0.0000000E+000	0.0000000E+000	0.0000000E+000	78.3062	0.0000000E+000	0.0000000E+000	0.0000000E+000	-78.3062	0.0000000E+000	0.0000000E+000	0.0000000E+000	-11.6938	0.0000000E+000	0.0000000E+000	0.0000000E+000	11.6938	4.83146	78.3062	2.10352e-05	2.00996e-07	9.86366e-12	2.00986e-07	0.271141	365802	17.9513	365784
0.0146812	58.7479	14.961	60.623	-14.2875	462.682	0.271155	-0.000697227	724602	44131.1	1	12	0.00474167	7.82157e-05	0	0.000301058	1.33066e-05	1.16823e-06	-37.9067	0.014936	0.0117847	0.00917631	-14.2931	60.6367	58.7597	14.9701	0.0159852	0.00407085	0.0164954	14.2875	4.41311e+07	1.73291e+08	1.78822e+08	-75.7125	0.0000000E+000	0.0000000E+000	0.0000000E+000	75.7125	0.0000000E+000	0.0000000E+000	0.0000000E+000	-75.7125	0.0000000E+000	0.0000000E+000	0.0000000E+000	-14.2875	0.0000000E+000	0.0000000E+000	0.0000000E+000	14.2875	3.92674	75.7125	0.000112797	-1.89057e-07	-9.27771e-12	-1.89047e-07	0.271142	388905	19.085	388886
0.0100092	61.0368	18.888	63.8925	-17.1949	672.863	0.271147	-0.000125148	841851	73571.4	1	12	0.00473712	7.4142e-05	0	0.00049913	-0.000139573	1.54143e-06	15.2605	0.0207903	0.0200572	-0.00547216	-17.1849	63.9101	61.0569	18.8826	0.0149518	0.00462687	0.0156513	17.1949	7.35714e+07	2.37746e+08	2.4887e+08	-72.8051	0.0000000E+000	0.0000000E+000	0.0000000E+000	72.8051	0.0000000E+000	0.0000000E+000	0.0000000E+000	-72.8051	0.0000000E+000	0.0000000E+000	0.0000000E+000	-17.1949	0.0000000E+000	0.0000000E+000	0.0000000E+000	17.1949	3.23151	72.8051	0.000198073	-3.39335e-08	1.74673e-11	-3.39509e-08	0.271286	2.16661e+06	1115.26	2.16772e+06