File: txt/19515_R316_UA718_SOC00_C08.mpt
EC-Lab ASCII FILE
Nb header lines : 65

Potentio Electrochemical Impedance Spectroscopy

Run on channel : 8 (SN 65398)
User :
CE vs. WE compliance from -10 V to 10 V
Electrode connection : standard
Potential control : Ewe
Ewe ctrl range : min = -10.00 V, max = 10.00 V
Safety Limits :
	Do not start on E overload
Acquisition started on : 12/05/2025 08:54:38.603
Technique started on : 12/05/2025 08:54:40.514
Loaded Setting File :  NONE
Saved on :
	File : 19515_R316_UA718_SOC00_C08.mpr
	Directory : C:\Users\Celltest\OneDrive - store-dot.com\Documents\EC-Lab\Data\Charmaine\
	Host : 169.254.61.224
Device : VMP-3e (SN .003165)
Address : USB
EC-LAB for windows v11.62 (software)
Internet server v27.00 (firmware)
Command interpretor v12.03 (firmware)
Electrode material :
Initial state :
Electrolyte :
Comments :
Electrode surface area : 0.001 cm²
Characteristic mass : 0.001 g
Equivalent Weight : 0.000 g/eq.
Density : 0.000 g/cm3
Volume (V) : 0.001 cm³
Record Ece
Cycle Definition : Charge/Discharge alternance
Mode                Single sine
E (V)               0.0000
vs.                 Eoc
tE (h:m:s)          0:00:0.0000
record              0
dI                  0.000
unit dI             mA
dt (s)              0.000
fi                  100.000
unit fi             kHz
ff                  10.000
unit ff             mHz
Nd                  6
Points              per decade
spacing             Logarithmic
Va (mV)             5.0
pw                  0.10
Na                  2
corr                0
E range min (V)     -10.000
E range max (V)     10.000
I Range             Auto
Bandwidth           5
nc cycles           0
goto Ns'            0
nr cycles           0
inc. cycle          0

freq/Hz	Re(Z)/Ohm	-Im(Z)/Ohm	|Z|/Ohm	Phase(Z)/deg	time/s	<Ewe>/V	<I>/mA	Cs/µF	Cp/µF	cycle number	I Range	|Ewe|/V	|I|/A	Ns	(Q-Qo)/mA.h	<Ece>/V	|Ece|/V	Phase(Zce)/deg	|Zce|/Ohm	Re(Zce)/Ohm	-Im(Zce)/Ohm	Phase(Zwe-ce)/deg	|Zwe-ce|/Ohm	Re(Zwe-ce)/Ohm	-Im(Zwe-ce)/Ohm	Re(Y)/Ohm-1	Im(Y)/Ohm-1	|Y|/Ohm-1	Phase(Y)/deg	Re(C)/nF	Im(C)/nF	|C|/nF	Phase(C)/deg	Re(M)	Im(M)	|M|	Phase(M)/deg	Re(Permittivity)	Im(Permittivity)	|Permittivity|	Phase(Permittivity)/deg	Re(Resistivity)/Ohm.cm	Im(Resistivity)/Ohm.cm	|Resistivity|/Ohm.cm	Phase(Resistivity)/deg	Re(Conductivity)/mS/cm	Im(Conductivity)/mS/cm	|Conductivity|/mS/cm	Phase(Conductivity)/deg	Tan(Delta)	Loss Angle(Delta)/deg	dq/mA.h	Pwe/W	Pce/W	Pwe-ce/W	<Ewe-Ece>/V	Rwe/Ohm	Rce/Ohm	Rwe-ce/Ohm		Ewe-Ece/V
100004	1.49605	0.5676	1.60011	-20.7766	1.91052	0.283542	0.00260657	2.8039	0.352815	1	9	0.00471069	0.00294398	0	2.84178e-06	-4.37492e-05	4.80484e-05	92.9814	0.0163209	-0.000848869	-0.0162988	-20.2396	1.5936	1.49521	0.551301	0.584317	0.221689	0.624958	20.7766	352.815	929.935	994.614	-69.2234	0.0000000E+000	0.0000000E+000	0.0000000E+000	69.2234	0.0000000E+000	0.0000000E+000	0.0000000E+000	-69.2234	0.0000000E+000	0.0000000E+000	0.0000000E+000	-20.7766	0.0000000E+000	0.0000000E+000	0.0000000E+000	20.7766	2.63576	69.2234	2.84178e-06	7.39071e-07	-1.14035e-10	7.39185e-07	0.283585	108780	16.7842	108796
68132	1.64571	0.638533	1.76524	-21.2062	2.41755	0.283528	-0.00174609	3.65835	0.478679	1	9	0.00504449	0.00285768	0	8.38228e-06	-2.46612e-05	4.10396e-05	93.2642	0.0143612	-0.000817729	-0.0143379	-20.7805	1.75934	1.64489	0.624195	0.528135	0.204916	0.566495	21.2062	478.679	1233.71	1323.32	-68.7938	0.0000000E+000	0.0000000E+000	0.0000000E+000	68.7938	0.0000000E+000	0.0000000E+000	0.0000000E+000	-68.7938	0.0000000E+000	0.0000000E+000	0.0000000E+000	-21.2062	0.0000000E+000	0.0000000E+000	0.0000000E+000	21.2062	2.57732	68.7938	5.5405e-06	-4.95064e-07	4.30605e-11	-4.95107e-07	0.283552	162379	14.1237	162393
46420.4	1.82007	0.70321	1.9512	-21.1247	2.92452	0.283541	0.00688482	4.87558	0.633279	1	9	0.00506227	0.00259445	0	2.33569e-05	0.000128043	1.90089e-05	53.8909	0.00732677	0.00431784	-0.00591927	-20.9171	1.9531	1.82439	0.697291	0.478065	0.184707	0.512506	21.1247	633.279	1639.07	1757.16	-68.8753	0.0000000E+000	0.0000000E+000	0.0000000E+000	68.8753	0.0000000E+000	0.0000000E+000	0.0000000E+000	-68.8753	0.0000000E+000	0.0000000E+000	0.0000000E+000	-21.1247	0.0000000E+000	0.0000000E+000	0.0000000E+000	21.1247	2.58823	68.8753	1.49746e-05	1.95213e-06	8.81555e-10	1.95124e-06	0.283413	41183.4	18.5979	41164.8
31621.1	1.99315	0.781652	2.14094	-21.4136	3.43155	0.283533	0.00357382	6.43916	0.858315	1	9	0.00512611	0.00239432	0	2.13994e-05	0.000166219	1.20561e-05	7.29685	0.00503529	0.00499451	-0.000639533	-21.349	2.14536	1.99814	0.781013	0.434841	0.170531	0.467084	21.4136	858.315	2188.64	2350.92	-68.5864	0.0000000E+000	0.0000000E+000	0.0000000E+000	68.5864	0.0000000E+000	0.0000000E+000	0.0000000E+000	-68.5864	0.0000000E+000	0.0000000E+000	0.0000000E+000	-21.4136	0.0000000E+000	0.0000000E+000	0.0000000E+000	21.4136	2.54992	68.5864	-1.95752e-06	1.01329e-06	5.94038e-10	1.0127e-06	0.283366	79336	46.5103	79289.5
21544.7	2.19477	0.858174	2.35658	-21.3559	3.81455	0.283528	0.00602915	8.60805	1.14154	1	9	0.0050509	0.00214332	0	2.56979e-05	8.98672e-05	4.15642e-06	81.2825	0.00193924	0.000293918	-0.00191684	-21.3099	2.35616	2.19506	0.856257	0.395207	0.154529	0.424344	21.3559	1141.54	2919.47	3134.71	-68.6441	0.0000000E+000	0.0000000E+000	0.0000000E+000	68.6441	0.0000000E+000	0.0000000E+000	0.0000000E+000	-68.6441	0.0000000E+000	0.0000000E+000	0.0000000E+000	-21.3559	0.0000000E+000	0.0000000E+000	0.0000000E+000	21.3559	2.55749	68.6441	4.29851e-06	1.70944e-06	5.41823e-10	1.70889e-06	0.283439	47026.2	14.9054	47011.3
14678.6	2.39651	0.928283	2.57001	-21.1738	4.19753	0.283532	0.0036482	11.6803	1.52386	1	9	0.00487527	0.00189698	0	2.56018e-05	-4.37492e-05	1.27212e-05	-117.424	0.00670603	-0.00308861	0.00595243	-21.3224	2.56929	2.39342	0.934236	0.362835	0.140543	0.389103	21.1738	1523.86	3934.09	4218.91	-68.8262	0.0000000E+000	0.0000000E+000	0.0000000E+000	68.8262	0.0000000E+000	0.0000000E+000	0.0000000E+000	-68.8262	0.0000000E+000	0.0000000E+000	0.0000000E+000	-21.1738	0.0000000E+000	0.0000000E+000	0.0000000E+000	21.1738	2.58166	68.8262	-9.61483e-08	1.03438e-06	-1.59606e-10	1.03454e-06	0.283576	77718.3	11.992	77730.3
10002.2	2.60442	1.01032	2.79352	-21.2026	4.58056	0.283518	0.0036482	15.7494	2.06006	1	9	0.00489058	0.00175069	0	2.44609e-05	0.000166219	8.64136e-06	37.6796	0.00493598	0.00390654	-0.00301709	-21.116	2.79607	2.60832	1.0073	0.33374	0.129466	0.357972	21.2026	2060.06	5310.45	5696.03	-68.7974	0.0000000E+000	0.0000000E+000	0.0000000E+000	68.7974	0.0000000E+000	0.0000000E+000	0.0000000E+000	-68.7974	0.0000000E+000	0.0000000E+000	0.0000000E+000	-21.2026	0.0000000E+000	0.0000000E+000	0.0000000E+000	21.2026	2.57781	68.7974	-1.14083e-06	1.03433e-06	6.06402e-10	1.03373e-06	0.283352	77714.5	45.562	77668.9
6810.42	2.81397	1.10948	3.0248	-21.5181	4.83953	0.283528	0.000262796	21.0633	2.83383	1	9	0.00467741	0.00154636	0	2.3876e-05	8.98672e-05	4.74588e-05	-5.73203	0.0306907	0.0305373	0.00306527	-21.3615	3.05434	2.84451	1.11255	0.307558	0.121263	0.330601	21.5181	2833.83	7187.43	7725.92	-68.4819	0.0000000E+000	0.0000000E+000	0.0000000E+000	68.4819	0.0000000E+000	0.0000000E+000	0.0000000E+000	-68.4819	0.0000000E+000	0.0000000E+000	0.0000000E+000	-21.5181	0.0000000E+000	0.0000000E+000	0.0000000E+000	21.5181	2.5363	68.4819	-5.84978e-07	7.45101e-08	2.36167e-11	7.44865e-08	0.283438	1.07889e+06	341.965	1.07855e+06
4646	3.0775	1.24378	3.31934	-22.0063	5.10464	0.283467	-0.0353769	27.5421	3.86708	1	9	0.0046315	0.00139531	0	2.18175e-05	0.000108955	8.17868e-06	84.7544	0.00586155	0.00053589	-0.005837	-21.9094	3.31765	3.07803	1.23795	0.279316	0.112886	0.301265	22.0063	3867.08	9568.33	10320.2	-67.9937	0.0000000E+000	0.0000000E+000	0.0000000E+000	67.9937	0.0000000E+000	0.0000000E+000	0.0000000E+000	-67.9937	0.0000000E+000	0.0000000E+000	0.0000000E+000	-22.0063	0.0000000E+000	0.0000000E+000	0.0000000E+000	22.0063	2.47431	67.9937	-2.05842e-06	-1.00282e-05	-3.8545e-09	-1.00243e-05	0.283358	8012.76	3.07984	8009.68
3163.08	3.34182	1.43322	3.63619	-23.2133	5.47963	0.283307	-0.010191	35.1072	5.4542	1	9	0.00454617	0.00125026	0	2.19682e-05	0.000147131	7.78871e-06	38.0159	0.0062297	0.00490801	-0.00383674	-23.1273	3.63919	3.34673	1.42939	0.252749	0.108398	0.275013	23.2133	5454.2	12717.4	13837.7	-66.7867	0.0000000E+000	0.0000000E+000	0.0000000E+000	66.7867	0.0000000E+000	0.0000000E+000	0.0000000E+000	-66.7867	0.0000000E+000	0.0000000E+000	0.0000000E+000	-23.2133	0.0000000E+000	0.0000000E+000	0.0000000E+000	23.2133	2.33168	66.7867	1.50643e-07	-2.88719e-06	-1.49942e-09	-2.88569e-06	0.28316	27799.6	14.4373	27785.2
2155.69	3.63112	1.64606	3.9868	-24.3858	6.17485	0.283461	-0.0104008	44.8526	7.64596	1	10	0.00468121	0.00117418	0	2.79945e-05	-8.19253e-05	6.29973e-06	58.9899	0.00536523	0.00276411	-0.00459841	-24.3092	3.98742	3.63388	1.64147	0.228451	0.103562	0.250828	24.3858	7645.96	16866.5	18518.7	-65.6142	0.0000000E+000	0.0000000E+000	0.0000000E+000	65.6142	0.0000000E+000	0.0000000E+000	0.0000000E+000	-65.6142	0.0000000E+000	0.0000000E+000	0.0000000E+000	-24.3858	0.0000000E+000	0.0000000E+000	0.0000000E+000	24.3858	2.20594	65.6142	6.02632e-06	-2.9482e-06	8.52085e-10	-2.94906e-06	0.283543	27253.8	7.87686	27261.7
1468.59	3.9251	1.92075	4.36986	-26.0748	6.62603	0.283451	-0.0105086	56.4221	10.9007	1	10	0.0046098	0.00105491	0	2.72027e-05	-6.28373e-05	7.96597e-06	141.32	0.00755133	-0.00589492	-0.00471938	-26.0532	4.36249	3.9192	1.91603	0.205549	0.100586	0.22884	26.0748	10900.7	22275.9	24800	-63.9252	0.0000000E+000	0.0000000E+000	0.0000000E+000	63.9252	0.0000000E+000	0.0000000E+000	0.0000000E+000	-63.9252	0.0000000E+000	0.0000000E+000	0.0000000E+000	-26.0748	0.0000000E+000	0.0000000E+000	0.0000000E+000	26.0748	2.04352	63.9252	-7.91755e-07	-2.97869e-06	6.60334e-10	-2.97935e-06	0.283514	26973.2	5.97958	26979.2
1000.32	4.26222	2.30877	4.84737	-28.4437	7.07677	0.283455	-0.0103561	68.9128	15.6333	1	10	0.00458811	0.000946515	0	2.55065e-05	5.16911e-05	5.02251e-06	-13.0633	0.00530632	0.00516899	0.00119937	-28.427	4.85249	4.26739	2.30997	0.181394	0.0982583	0.206297	28.4437	15633.3	28860.6	32822.8	-61.5563	0.0000000E+000	0.0000000E+000	0.0000000E+000	61.5563	0.0000000E+000	0.0000000E+000	0.0000000E+000	-61.5563	0.0000000E+000	0.0000000E+000	0.0000000E+000	-28.4437	0.0000000E+000	0.0000000E+000	0.0000000E+000	28.4437	1.8461	61.5563	-1.69621e-06	-2.93549e-06	-5.35319e-10	-2.93496e-06	0.283403	27370.7	4.99135	27365.7
681.09	4.62737	2.85061	5.43494	-31.6344	7.52656	0.283461	-0.010769	81.9743	22.5509	1	10	0.00455337	0.000837796	0	2.49131e-05	-6.28373e-05	3.4025e-06	44.0621	0.00406125	0.00291836	-0.00282435	-31.5929	5.43594	4.63029	2.84779	0.156655	0.0965048	0.183995	31.6344	22550.9	36606.7	42995.3	-58.3656	0.0000000E+000	0.0000000E+000	0.0000000E+000	58.3656	0.0000000E+000	0.0000000E+000	0.0000000E+000	-58.3656	0.0000000E+000	0.0000000E+000	0.0000000E+000	-31.6344	0.0000000E+000	0.0000000E+000	0.0000000E+000	31.6344	1.62329	58.3656	-5.93389e-07	-3.0526e-06	6.76697e-10	-3.05328e-06	0.283524	26321.9	5.83499	26327.7
463.961	5.067	3.60887	6.2208	-35.4596	7.97835	0.28346	-0.00968282	95.0534	31.9902	1	10	0.00453403	0.00072885	0	2.38709e-05	-0.000101013	4.5218e-06	-7.00741	0.00620401	0.00615767	0.000756875	-35.4324	6.22626	5.07316	3.60963	0.130936	0.0932563	0.160751	35.4596	31990.2	44915.5	55143.2	-54.5404	0.0000000E+000	0.0000000E+000	0.0000000E+000	54.5404	0.0000000E+000	0.0000000E+000	0.0000000E+000	-54.5404	0.0000000E+000	0.0000000E+000	0.0000000E+000	-35.4596	0.0000000E+000	0.0000000E+000	0.0000000E+000	35.4596	1.40404	54.5404	-1.04219e-06	-2.74469e-06	9.78094e-10	-2.74567e-06	0.283561	29274.5	10.4322	29285
316.316	5.62683	4.66533	7.30934	-39.6629	8.42603	0.283461	-0.0113159	107.849	43.9364	1	10	0.00451498	0.000617701	0	2.22432e-05	7.07791e-05	6.20428e-06	-107.682	0.0100442	-0.00305078	0.00956963	-39.7358	7.31311	5.62378	4.6749	0.105319	0.0873224	0.136811	39.6629	43936.4	52991.5	68836.8	-50.3371	0.0000000E+000	0.0000000E+000	0.0000000E+000	50.3371	0.0000000E+000	0.0000000E+000	0.0000000E+000	-50.3371	0.0000000E+000	0.0000000E+000	0.0000000E+000	-39.6629	0.0000000E+000	0.0000000E+000	0.0000000E+000	39.6629	1.2061	50.3371	-1.62778e-06	-3.20761e-06	-8.00928e-10	-3.20681e-06	0.28339	25049.8	6.25485	25043.6
215.345	6.4486	6.07042	8.85633	-43.2697	8.87653	0.283465	-0.0111187	121.75	57.2003	1	10	0.00449964	0.00050807	0	2.04307e-05	-0.000158278	2.80077e-05	21.5924	0.0551256	0.0512572	-0.0202863	-42.9477	8.87988	6.49986	6.05014	0.0822164	0.0773948	0.112914	43.2697	57200.3	60763.8	83451.2	-46.7303	0.0000000E+000	0.0000000E+000	0.0000000E+000	46.7303	0.0000000E+000	0.0000000E+000	0.0000000E+000	-46.7303	0.0000000E+000	0.0000000E+000	0.0000000E+000	-43.2697	0.0000000E+000	0.0000000E+000	0.0000000E+000	43.2697	1.0623	46.7303	-1.81243e-06	-3.15177e-06	1.75984e-09	-3.15353e-06	0.283623	25494.4	14.2352	25508.6
146.737	7.70809	7.95526	11.077	-45.9041	9.32249	0.283463	-0.0122161	136.341	70.3212	1	10	0.00450328	0.000406542	0	1.90517e-05	-0.00033007	6.12697e-06	-22.5355	0.0150709	0.0139201	0.00577604	-45.8732	11.0909	7.72201	7.96104	0.0628202	0.0648346	0.0902768	45.9041	70321.2	68136.3	97916.4	-44.0959	0.0000000E+000	0.0000000E+000	0.0000000E+000	44.0959	0.0000000E+000	0.0000000E+000	0.0000000E+000	-44.0959	0.0000000E+000	0.0000000E+000	0.0000000E+000	-45.9041	0.0000000E+000	0.0000000E+000	0.0000000E+000	45.9041	0.96893	44.0959	-1.37903e-06	-3.46282e-06	4.03218e-09	-3.46685e-06	0.283793	23204	27.0192	23231
100.032	9.61504	10.2052	14.0212	-46.7054	9.98782	0.283449	-0.0107877	155.905	82.5905	1	10	0.0050111	0.000357394	0	1.69515e-05	-0.00013919	5.73711e-06	40.8095	0.0160526	0.01215	-0.0104911	-46.6399	14.0219	9.62719	10.1947	0.048908	0.0519098	0.0713205	46.7054	82590.5	77814.5	113474	-43.2946	0.0000000E+000	0.0000000E+000	0.0000000E+000	43.2946	0.0000000E+000	0.0000000E+000	0.0000000E+000	-43.2946	0.0000000E+000	0.0000000E+000	0.0000000E+000	-46.7054	0.0000000E+000	0.0000000E+000	0.0000000E+000	46.7054	0.942173	43.2946	-2.1002e-06	-3.05774e-06	1.50153e-09	-3.05925e-06	0.283588	26275.3	12.9027	26288.2
68.104	12.5403	12.7367	17.8741	-45.4451	10.4504	0.283461	-0.00797164	183.481	93.1656	1	10	0.00500907	0.000280242	0	1.59139e-05	0.000108955	6.23438e-06	-104.98	0.0222465	-0.00575025	0.0214904	-45.5066	17.8854	12.5346	12.7582	0.0392518	0.0398665	0.0559468	45.4451	93165.7	91729.2	130744	-44.5549	0.0000000E+000	0.0000000E+000	0.0000000E+000	44.5549	0.0000000E+000	0.0000000E+000	0.0000000E+000	-44.5549	0.0000000E+000	0.0000000E+000	0.0000000E+000	-45.4451	0.0000000E+000	0.0000000E+000	0.0000000E+000	45.4451	0.984582	44.5549	-1.03756e-06	-2.25965e-06	-8.68552e-10	-2.25878e-06	0.283352	35558.7	13.6679	35545
46.4415	16.644	15.1092	22.4791	-42.2328	11.1267	0.283504	-0.00228625	226.815	102.47	1	11	0.00501516	0.000223103	0	1.41766e-05	-0.000101013	7.57064e-06	-22.075	0.0339334	0.0314458	0.0127528	-42.203	22.511	16.6754	15.122	0.0329381	0.0299008	0.0444857	42.2328	102470	112879	152452	-47.7672	0.0000000E+000	0.0000000E+000	0.0000000E+000	47.7672	0.0000000E+000	0.0000000E+000	0.0000000E+000	-47.7672	0.0000000E+000	0.0000000E+000	0.0000000E+000	-42.2328	0.0000000E+000	0.0000000E+000	0.0000000E+000	42.2328	1.10158	47.7672	-1.73735e-06	-6.48161e-07	2.30942e-10	-6.48392e-07	0.283605	124004	44.1831	124048
31.6296	21.6859	16.5906	27.3043	-37.4175	11.5566	0.283509	-0.00249507	303.295	111.976	1	11	0.00500636	0.000183354	0	1.43057e-05	-4.37492e-05	1.00947e-05	43.9752	0.0550559	0.0396205	-0.0382279	-37.3033	27.3126	21.7255	16.5524	0.029088	0.0222535	0.0366242	37.4175	111976	146366	184287	-52.5825	0.0000000E+000	0.0000000E+000	0.0000000E+000	52.5825	0.0000000E+000	0.0000000E+000	0.0000000E+000	-52.5825	0.0000000E+000	0.0000000E+000	0.0000000E+000	-37.4175	0.0000000E+000	0.0000000E+000	0.0000000E+000	37.4175	1.30712	52.5825	1.29139e-07	-7.07376e-07	1.09157e-10	-7.07486e-07	0.283553	113628	17.5342	113645
21.5517	27.1591	16.9313	32.0045	-31.9398	11.9775	0.283503	-0.00268529	436.163	122.069	1	11	0.00501287	0.00015663	0	1.40974e-05	-0.000120101	7.37132e-06	-14.3921	0.0470619	0.045585	0.0116976	-31.9144	32.0494	27.2047	16.943	0.0265152	0.0165298	0.0312456	31.9398	122069	195809	230742	-58.0602	0.0000000E+000	0.0000000E+000	0.0000000E+000	58.0602	0.0000000E+000	0.0000000E+000	0.0000000E+000	-58.0602	0.0000000E+000	0.0000000E+000	0.0000000E+000	-31.9398	0.0000000E+000	0.0000000E+000	0.0000000E+000	31.9398	1.60408	58.0602	-2.08334e-07	-7.61287e-07	3.22507e-10	-7.61609e-07	0.283623	105576	44.7257	105621
14.6852	32.2242	15.9481	35.9548	-26.3313	12.4372	0.283513	-0.0017506	679.566	133.702	1	11	0.00500165	0.000139109	0	1.42726e-05	-0.000120101	4.55682e-06	-85.5929	0.0327571	0.00251712	0.0326602	-26.3762	35.9715	32.2268	15.9808	0.024927	0.0123367	0.0278127	26.3313	133702	270154	301429	-63.6687	0.0000000E+000	0.0000000E+000	0.0000000E+000	63.6687	0.0000000E+000	0.0000000E+000	0.0000000E+000	-63.6687	0.0000000E+000	0.0000000E+000	0.0000000E+000	-26.3313	0.0000000E+000	0.0000000E+000	0.0000000E+000	26.3313	2.02056	63.6687	1.75228e-07	-4.96319e-07	2.1025e-10	-4.96529e-07	0.283633	161952	68.6058	162020
10.0032	36.5356	14.4182	39.2777	-21.5359	12.8878	0.283513	-0.00186637	1103.49	148.697	1	11	0.00500003	0.0001273	0	1.30016e-05	-6.28373e-05	1.14473e-05	-12.6295	0.0899241	0.0877483	0.0196615	-21.5157	39.3665	36.6234	14.4379	0.0236823	0.00934588	0.0254598	21.5359	148697	376796	405075	-68.4641	0.0000000E+000	0.0000000E+000	0.0000000E+000	68.4641	0.0000000E+000	0.0000000E+000	0.0000000E+000	-68.4641	0.0000000E+000	0.0000000E+000	0.0000000E+000	-21.5359	0.0000000E+000	0.0000000E+000	0.0000000E+000	21.5359	2.53399	68.4641	-1.27098e-06	-5.2914e-07	1.17277e-10	-5.29257e-07	0.283576	151906	33.6682	151940
6.81719	40.0415	12.6651	41.9967	-17.5521	13.2275	0.28352	-0.00207408	1843.35	167.646	1	11	0.00499647	0.000118973	0	1.3741e-05	0.000128043	8.76036e-06	-24.9139	0.0736333	0.0667812	0.0310184	-17.565	42.0697	40.1082	12.6961	0.0227028	0.00718088	0.0238114	17.5521	167646	530022	555904	-72.4479	0.0000000E+000	0.0000000E+000	0.0000000E+000	72.4479	0.0000000E+000	0.0000000E+000	0.0000000E+000	-72.4479	0.0000000E+000	0.0000000E+000	0.0000000E+000	-17.5521	0.0000000E+000	0.0000000E+000	0.0000000E+000	17.5521	3.16157	72.4479	7.39304e-07	-5.88042e-07	-2.65571e-10	-5.87776e-07	0.283392	136697	61.7351	136635
4.63925	42.8631	10.8674	44.2193	-14.2269	13.7124	0.28352	-0.0014945	3156.79	190.666	1	11	0.00499855	0.00011304	0	1.39448e-05	0.000147131	5.52083e-06	73.1147	0.0488397	0.0141858	-0.0467341	-14.1636	44.2216	42.8773	10.8207	0.021921	0.00555779	0.0226145	14.2269	190666	752024	775818	-75.7731	0.0000000E+000	0.0000000E+000	0.0000000E+000	75.7731	0.0000000E+000	0.0000000E+000	0.0000000E+000	-75.7731	0.0000000E+000	0.0000000E+000	0.0000000E+000	-14.2269	0.0000000E+000	0.0000000E+000	0.0000000E+000	14.2269	3.94419	75.7731	2.03865e-07	-4.23721e-07	-2.19888e-10	-4.23502e-07	0.283373	189709	98.4483	189610
3.1604	45.0743	9.46793	46.058	-11.8626	14.4055	0.28352	-0.00118666	5318.92	224.763	1	11	0.00499809	0.000108517	0	1.23799e-05	7.07791e-05	2.33595e-06	-152.573	0.021526	-0.0191065	0.00991518	-11.8796	46.0413	45.0552	9.47785	0.0212481	0.00446319	0.0217118	11.8626	224763	1.07004e+06	1.09339e+06	-78.1374	0.0000000E+000	0.0000000E+000	0.0000000E+000	78.1374	0.0000000E+000	0.0000000E+000	0.0000000E+000	-78.1374	0.0000000E+000	0.0000000E+000	0.0000000E+000	-11.8626	0.0000000E+000	0.0000000E+000	0.0000000E+000	11.8626	4.76074	78.1374	-1.56496e-06	-3.36442e-07	-8.3991e-11	-3.36358e-07	0.283449	238922	59.6455	238862
2.15577	46.7636	8.55303	47.5393	-10.3648	15.4092	0.283524	-0.00065846	8631.74	279.404	1	11	0.00497367	0.000104622	0	1.0665e-05	-4.37492e-05	1.3954e-05	109.854	0.133375	-0.0452974	-0.125447	-10.2257	47.4724	46.7183	8.42758	0.020692	0.00378454	0.0210352	10.3648	279404	1.52764e+06	1.55298e+06	-79.6352	0.0000000E+000	0.0000000E+000	0.0000000E+000	79.6352	0.0000000E+000	0.0000000E+000	0.0000000E+000	-79.6352	0.0000000E+000	0.0000000E+000	0.0000000E+000	-10.3648	0.0000000E+000	0.0000000E+000	0.0000000E+000	10.3648	5.46749	79.6352	-1.71491e-06	-1.86689e-07	2.88071e-11	-1.86718e-07	0.283568	430586	66.4418	430653
1.46631	48.6764	7.14444	49.1979	-8.34993	17.5963	0.283521	-0.000579564	15192.4	320.383	1	12	0.00500464	0.000101725	0	1.07723e-05	-2.46612e-05	2.1634e-06	-22.1816	0.0212672	0.0196932	0.00802929	-8.35585	49.2185	48.6961	7.15247	0.0201106	0.00295172	0.0203261	8.34993	320383	2.18283e+06	2.20622e+06	-81.6501	0.0000000E+000	0.0000000E+000	0.0000000E+000	81.6501	0.0000000E+000	0.0000000E+000	0.0000000E+000	-81.6501	0.0000000E+000	0.0000000E+000	0.0000000E+000	-8.34993	0.0000000E+000	0.0000000E+000	0.0000000E+000	8.34993	6.81318	81.6501	1.07337e-07	-1.64319e-07	1.42927e-11	-1.64333e-07	0.283546	489198	42.5512	489240
1.00006	49.99	6.27832	50.3828	-7.15838	19.7238	0.283525	-0.000603596	25348.3	393.616	1	12	0.0050024	9.9288e-05	0	1.35496e-05	8.98672e-05	1.81792e-06	-90.005	0.0183096	-1.58324e-06	0.0183096	-7.17904	50.385	49.99	6.29663	0.0196934	0.00247332	0.0198481	7.15838	393616	3.13409e+06	3.15872e+06	-82.8416	0.0000000E+000	0.0000000E+000	0.0000000E+000	82.8416	0.0000000E+000	0.0000000E+000	0.0000000E+000	-82.8416	0.0000000E+000	0.0000000E+000	0.0000000E+000	-7.15838	0.0000000E+000	0.0000000E+000	0.0000000E+000	7.15838	7.96232	82.8416	2.77729e-06	-1.71134e-07	-5.42434e-11	-1.7108e-07	0.283435	469727	148.886	469578
0.681362	51.1833	5.60655	51.4895	-6.25118	22.8359	0.283527	-0.000505924	41662.6	493.97	1	12	0.00500172	9.71407e-05	0	1.70325e-05	0.000128043	3.14809e-06	-0.406311	0.0324076	0.0324067	0.000229815	-6.24751	51.5217	51.2158	5.60678	0.019306	0.00211475	0.0194214	6.25118	493970	4.50955e+06	4.53653e+06	-83.7488	0.0000000E+000	0.0000000E+000	0.0000000E+000	83.7488	0.0000000E+000	0.0000000E+000	0.0000000E+000	-83.7488	0.0000000E+000	0.0000000E+000	0.0000000E+000	-6.25118	0.0000000E+000	0.0000000E+000	0.0000000E+000	6.25118	9.1292	83.7488	3.48295e-06	-1.43443e-07	-6.47802e-11	-1.43379e-07	0.283399	560415	253.088	560162
0.464091	52.3275	5.18296	52.5835	-5.65662	27.3925	0.28352	-0.000345453	66166.7	642.83	1	12	0.00500476	9.51774e-05	0	1.86654e-05	-0.000272806	6.57929e-06	-77.573	0.0691266	0.0148758	0.0675071	-5.72819	52.605	52.3424	5.25047	0.0189248	0.00187447	0.0190174	5.65662	642830	6.49004e+06	6.5218e+06	-84.3434	0.0000000E+000	0.0000000E+000	0.0000000E+000	84.3434	0.0000000E+000	0.0000000E+000	0.0000000E+000	-84.3434	0.0000000E+000	0.0000000E+000	0.0000000E+000	-5.65662	0.0000000E+000	0.0000000E+000	0.0000000E+000	5.65662	10.0961	84.3434	1.63289e-06	-9.79429e-08	9.42417e-11	-9.80371e-08	0.283793	820718	789.704	821508
0.316193	53.2688	5.09955	53.5124	-5.46839	34.0669	0.283517	-0.000132705	98704.3	896.378	1	12	0.00500404	9.35119e-05	0	1.52728e-05	-2.46612e-05	4.89704e-06	-28.0851	0.0523681	0.0462018	0.024654	-5.48994	53.5607	53.315	5.1242	0.0186022	0.00178083	0.0186873	5.46839	896378	9.36338e+06	9.40619e+06	-84.5316	0.0000000E+000	0.0000000E+000	0.0000000E+000	84.5316	0.0000000E+000	0.0000000E+000	0.0000000E+000	-84.5316	0.0000000E+000	0.0000000E+000	0.0000000E+000	-5.46839	0.0000000E+000	0.0000000E+000	0.0000000E+000	5.46839	10.4458	84.5316	-3.39261e-06	-3.76241e-08	3.27266e-12	-3.76274e-08	0.283541	2.13644e+06	185.834	2.13663e+06
0.215268	54.1509	5.17671	54.3978	-5.46076	43.8604	0.283519	8.37539e-05	142819	1293.4	1	12	0.00500268	9.19648e-05	0	4.42566e-06	0.000395276	3.43991e-06	2.85289	0.0374047	0.0373583	-0.00186169	-5.45506	54.4348	54.1882	5.17485	0.0182997	0.00174941	0.0183831	5.46076	1.2934e+06	1.35296e+07	1.35913e+07	-84.5392	0.0000000E+000	0.0000000E+000	0.0000000E+000	84.5392	0.0000000E+000	0.0000000E+000	0.0000000E+000	-84.5392	0.0000000E+000	0.0000000E+000	0.0000000E+000	-5.46076	0.0000000E+000	0.0000000E+000	0.0000000E+000	5.46076	10.4605	84.5392	-1.08472e-05	2.37458e-08	3.31059e-11	2.37127e-08	0.283124	3.38515e+06	4719.5	3.38043e+06
0.146929	55.1324	5.50866	55.4069	-5.70588	58.1988	0.283518	-0.000121627	196638	1943.71	1	12	0.00500291	9.02941e-05	0	-1.32102e-05	-0.000120101	2.42905e-06	-3.21219	0.0269016	0.0268593	0.0015074	-5.70467	55.4338	55.1592	5.51016	0.0179589	0.0017944	0.0180483	5.70588	1.94371e+06	1.94533e+07	1.95501e+07	-84.2941	0.0000000E+000	0.0000000E+000	0.0000000E+000	84.2941	0.0000000E+000	0.0000000E+000	0.0000000E+000	-84.2941	0.0000000E+000	0.0000000E+000	0.0000000E+000	-5.70588	0.0000000E+000	0.0000000E+000	0.0000000E+000	5.70588	10.0083	84.2941	-1.76359e-05	-3.44835e-08	1.46076e-11	-3.44981e-08	0.283638	2.33105e+06	987.457	2.33204e+06
0.0999041	56.3665	6.21855	56.7085	-6.29561	79.2749	0.283523	-0.000451134	256181	3080.56	1	12	0.00500673	8.82889e-05	0	-3.17819e-05	-4.37492e-05	2.89304e-06	-6.82621	0.0327678	0.0325356	0.00389473	-6.29592	56.7413	56.399	6.22245	0.0175277	0.00193372	0.017634	6.29561	3.08056e+06	2.7923e+07	2.80924e+07	-83.7044	0.0000000E+000	0.0000000E+000	0.0000000E+000	83.7044	0.0000000E+000	0.0000000E+000	0.0000000E+000	-83.7044	0.0000000E+000	0.0000000E+000	0.0000000E+000	-6.29561	0.0000000E+000	0.0000000E+000	0.0000000E+000	6.29561	9.06425	83.7044	-1.85717e-05	-1.27907e-07	1.97367e-11	-1.27927e-07	0.283567	628469	96.9762	628566
0.0680626	57.727	7.3933	58.1985	-7.29834	110.202	0.283519	-0.000776413	316281	5104.18	1	12	0.00500271	8.59594e-05	0	-4.22513e-05	0.000108955	2.40807e-06	36.6516	0.0280141	0.0224751	-0.0167229	-7.27921	58.2187	57.7495	7.37658	0.0170434	0.0021828	0.0171826	7.29834	5.10419e+06	3.98535e+07	4.01791e+07	-82.7017	0.0000000E+000	0.0000000E+000	0.0000000E+000	82.7017	0.0000000E+000	0.0000000E+000	0.0000000E+000	-82.7017	0.0000000E+000	0.0000000E+000	0.0000000E+000	-7.29834	0.0000000E+000	0.0000000E+000	0.0000000E+000	7.29834	7.80801	82.7017	-1.04695e-05	-2.20128e-07	-8.45943e-11	-2.20043e-07	0.28341	365165	140.331	365024
0.0464052	59.2196	9.00669	59.9006	-8.64782	155.554	0.283513	-0.00102379	380793	8609.07	1	12	0.00500453	8.35472e-05	0	-2.62938e-05	0.000242572	2.41493e-06	-6.18129	0.0289049	0.0287369	0.00311233	-8.64664	59.9295	59.2483	9.0098	0.0165045	0.00251017	0.0166943	8.64782	8.60908e+06	5.66053e+07	5.72562e+07	-81.3522	0.0000000E+000	0.0000000E+000	0.0000000E+000	81.3522	0.0000000E+000	0.0000000E+000	0.0000000E+000	-81.3522	0.0000000E+000	0.0000000E+000	0.0000000E+000	-8.64782	0.0000000E+000	0.0000000E+000	0.0000000E+000	8.64782	6.57507	81.3522	1.59576e-05	-2.90258e-07	-2.48343e-10	-2.9001e-07	0.28327	276924	236.934	276687
0.0315922	60.9869	10.8649	61.9472	-10.1013	222.159	0.283506	-0.000811855	463678	14263.3	1	12	0.005007	8.0827e-05	0	2.73158e-05	8.98672e-05	2.5451e-06	-2.25811	0.0314882	0.0314638	0.00124068	-10.0973	61.9784	61.0184	10.8661	0.0158926	0.00283127	0.0161428	10.1013	1.42633e+07	8.00634e+07	8.1324e+07	-79.8987	0.0000000E+000	0.0000000E+000	0.0000000E+000	79.8987	0.0000000E+000	0.0000000E+000	0.0000000E+000	-79.8987	0.0000000E+000	0.0000000E+000	0.0000000E+000	-10.1013	0.0000000E+000	0.0000000E+000	0.0000000E+000	10.1013	5.61323	79.8987	5.36096e-05	-2.30166e-07	-7.29591e-11	-2.30093e-07	0.283416	349208	110.694	349097
0.0215268	63.2764	13.1277	64.6238	-11.7207	319.897	0.28351	-0.000222084	563185	23240.5	1	12	0.00500321	7.74205e-05	0	0.000113788	7.07791e-05	1.95955e-06	-4.76451	0.0253105	0.025223	0.0021023	-11.718	64.649	63.3016	13.1298	0.0151515	0.00314344	0.0154742	11.7207	2.32405e+07	1.1202e+08	1.14406e+08	-78.2793	0.0000000E+000	0.0000000E+000	0.0000000E+000	78.2793	0.0000000E+000	0.0000000E+000	0.0000000E+000	-78.2793	0.0000000E+000	0.0000000E+000	0.0000000E+000	-11.7207	0.0000000E+000	0.0000000E+000	0.0000000E+000	11.7207	4.82005	78.2793	8.64722e-05	-6.29631e-08	-1.57189e-11	-6.29474e-08	0.283439	1.27659e+06	318.704	1.27627e+06
0.0146812	66.0238	16.3537	68.0191	-13.9118	463.2	0.28351	0.000353149	662892	38319	1	12	0.00500339	7.35587e-05	0	0.00019339	-0.00013919	2.81943e-06	22.2269	0.038329	0.0354809	-0.0144989	-13.8928	68.05	66.0593	16.3392	0.0142705	0.00353472	0.0147018	13.9118	3.8319e+07	1.54703e+08	1.59378e+08	-76.0882	0.0000000E+000	0.0000000E+000	0.0000000E+000	76.0882	0.0000000E+000	0.0000000E+000	0.0000000E+000	-76.0882	0.0000000E+000	0.0000000E+000	0.0000000E+000	-13.9118	0.0000000E+000	0.0000000E+000	0.0000000E+000	13.9118	4.03724	76.0882	7.96021e-05	1.00121e-07	-4.91546e-11	1.0017e-07	0.283649	802805	394.138	803199
0.0100092	68.7956	20.8159	71.8759	-16.8345	673.382	0.283508	0.000652152	763884	64069.4	1	12	0.00500347	6.96127e-05	0	0.000195614	-8.19253e-05	1.81497e-06	12.5796	0.0260724	0.0254465	-0.00567847	-16.8243	71.8986	68.8211	20.8102	0.0133166	0.00402929	0.0139129	16.8345	6.40694e+07	2.11747e+08	2.21227e+08	-73.1655	0.0000000E+000	0.0000000E+000	0.0000000E+000	73.1655	0.0000000E+000	0.0000000E+000	0.0000000E+000	-73.1655	0.0000000E+000	0.0000000E+000	0.0000000E+000	-16.8345	0.0000000E+000	0.0000000E+000	0.0000000E+000	16.8345	3.30496	73.1655	2.22405e-06	1.84891e-07	-5.34278e-11	1.84944e-07	0.28359	434727	125.623	434853