File: txt/19511_R316_UA718_SOC00_C05.mpt
EC-Lab ASCII FILE
Nb header lines : 65

Potentio Electrochemical Impedance Spectroscopy

Run on channel : 5 (SN 65912)
User :
CE vs. WE compliance from -10 V to 10 V
Electrode connection : standard
Potential control : Ewe
Ewe ctrl range : min = -10.00 V, max = 10.00 V
Safety Limits :
	Do not start on E overload
Acquisition started on : 12/04/2025 15:42:57.992
Technique started on : 12/04/2025 15:43:00.046
Loaded Setting File :  C:\Users\Celltest\OneDrive - store-dot.com\Documents\EC-Lab\Data\@Biologic Test Protocols\anode half cell EIS SOC00.mps
Saved on :
	File : 19511_R316_UA718_SOC00_C05.mpr
	Directory : C:\Users\Celltest\OneDrive - store-dot.com\Documents\EC-Lab\Data\Charmaine\
	Host : 169.254.61.224
Device : VMP-3e (SN .003165)
Address : USB
EC-LAB for windows v11.62 (software)
Internet server v27.00 (firmware)
Command interpretor v12.03 (firmware)
Electrode material :
Initial state :
Electrolyte :
Comments :
Electrode surface area : 0.001 cm²
Characteristic mass : 0.001 g
Equivalent Weight : 0.000 g/eq.
Density : 0.000 g/cm3
Volume (V) : 0.001 cm³
Record Ece
Cycle Definition : Charge/Discharge alternance
Mode                Single sine
E (V)               0.0000
vs.                 Eoc
tE (h:m:s)          0:00:0.0000
record              0
dI                  0.000
unit dI             mA
dt (s)              0.000
fi                  100.000
unit fi             kHz
ff                  10.000
unit ff             mHz
Nd                  6
Points              per decade
spacing             Logarithmic
Va (mV)             5.0
pw                  0.10
Na                  2
corr                0
E range min (V)     -10.000
E range max (V)     10.000
I Range             Auto
Bandwidth           5
nc cycles           0
goto Ns'            0
nr cycles           0
inc. cycle          0

freq/Hz	Re(Z)/Ohm	-Im(Z)/Ohm	|Z|/Ohm	Phase(Z)/deg	time/s	<Ewe>/V	<I>/mA	Cs/µF	Cp/µF	cycle number	I Range	|Ewe|/V	|I|/A	Ns	(Q-Qo)/mA.h	<Ece>/V	|Ece|/V	Phase(Zce)/deg	|Zce|/Ohm	Re(Zce)/Ohm	-Im(Zce)/Ohm	Phase(Zwe-ce)/deg	|Zwe-ce|/Ohm	Re(Zwe-ce)/Ohm	-Im(Zwe-ce)/Ohm	Re(Y)/Ohm-1	Im(Y)/Ohm-1	|Y|/Ohm-1	Phase(Y)/deg	Re(C)/nF	Im(C)/nF	|C|/nF	Phase(C)/deg	Re(M)	Im(M)	|M|	Phase(M)/deg	Re(Permittivity)	Im(Permittivity)	|Permittivity|	Phase(Permittivity)/deg	Re(Resistivity)/Ohm.cm	Im(Resistivity)/Ohm.cm	|Resistivity|/Ohm.cm	Phase(Resistivity)/deg	Re(Conductivity)/mS/cm	Im(Conductivity)/mS/cm	|Conductivity|/mS/cm	Phase(Conductivity)/deg	Tan(Delta)	Loss Angle(Delta)/deg	dq/mA.h	Pwe/W	Pce/W	Pwe-ce/W	<Ewe-Ece>/V	Rwe/Ohm	Rce/Ohm	Rwe-ce/Ohm		Ewe-Ece/V
100004	1.63473	0.585503	1.73642	-19.7058	2.05352	0.293227	0.0177046	2.71816	0.309046	1	9	0.00430651	0.00248011	0	4.13468e-06	0.000200619	2.43307e-05	41.8962	0.00981036	0.0073024	-0.00655119	-19.4218	1.74111	1.64203	0.578952	0.542171	0.194187	0.575897	19.7058	309.047	862.86	916.535	-70.2942	0.0000000E+000	0.0000000E+000	0.0000000E+000	70.2942	0.0000000E+000	0.0000000E+000	0.0000000E+000	-70.2942	0.0000000E+000	0.0000000E+000	0.0000000E+000	-19.7058	0.0000000E+000	0.0000000E+000	0.0000000E+000	19.7058	2.79201	70.2942	4.13468e-06	5.19148e-06	3.55188e-09	5.18793e-06	0.293027	16562.2	11.3314	16550.9
68132	1.80177	0.669552	1.92215	-20.3855	2.31253	0.29323	0.0133848	3.48887	0.42333	1	9	0.00485182	0.00252416	0	7.57465e-06	0.000238801	1.85031e-05	30.7988	0.00733041	0.00629661	-0.00375335	-20.2157	1.92675	1.80806	0.665799	0.487668	0.181222	0.520251	20.3855	423.33	1139.18	1215.29	-69.6145	0.0000000E+000	0.0000000E+000	0.0000000E+000	69.6145	0.0000000E+000	0.0000000E+000	0.0000000E+000	-69.6145	0.0000000E+000	0.0000000E+000	0.0000000E+000	-20.3855	0.0000000E+000	0.0000000E+000	0.0000000E+000	20.3855	2.691	69.6145	3.43997e-06	3.92482e-06	3.1963e-09	3.92162e-06	0.292991	21907.7	17.8412	21889.8
46420.4	1.93358	0.831961	2.10497	-23.2807	3.06754	0.29322	-0.0660824	4.12106	0.64376	1	9	0.18096	0.0859681	0	-2.78335e-05	2.87978e-05	8.96752e-05	77.9373	0.00104312	0.000217994	-0.00102009	-23.2529	2.10476	1.9338	0.830941	0.436386	0.187764	0.475067	23.2807	643.76	1496.18	1628.79	-66.7193	0.0000000E+000	0.0000000E+000	0.0000000E+000	66.7193	0.0000000E+000	0.0000000E+000	0.0000000E+000	-66.7193	0.0000000E+000	0.0000000E+000	0.0000000E+000	-23.2807	0.0000000E+000	0.0000000E+000	0.0000000E+000	23.2807	2.32412	66.7193	-3.54082e-05	-1.93767e-05	-1.90303e-09	-1.93748e-05	0.293192	4437.19	0.435786	4436.75
31621.1	2.14471	0.938876	2.34121	-23.6421	3.82254	0.2932	-0.0201683	5.36086	0.862125	1	9	0.00492057	0.00210172	0	-0.000190419	-2.84759e-05	5.2593e-06	52.0837	0.00250238	0.00153774	-0.00197415	-23.5827	2.34183	2.14625	0.936902	0.39128	0.171288	0.42713	23.6421	862.125	1969.38	2149.82	-66.3579	0.0000000E+000	0.0000000E+000	0.0000000E+000	66.3579	0.0000000E+000	0.0000000E+000	0.0000000E+000	-66.3579	0.0000000E+000	0.0000000E+000	0.0000000E+000	-23.6421	0.0000000E+000	0.0000000E+000	0.0000000E+000	23.6421	2.28434	66.3579	-0.000162585	-5.91335e-06	5.74309e-10	-5.91392e-06	0.293229	14537.7	1.41191	14539.1
21544.7	2.3774	1.03168	2.5916	-23.4586	4.20755	0.293192	-0.0210993	7.16034	1.13472	1	9	0.00507929	0.0019599	0	-0.000194403	0.000124254	5.19389e-06	-145.361	0.00265008	-0.00218035	0.00150632	-23.5084	2.5902	2.37522	1.03319	0.353969	0.153606	0.385861	23.4586	1134.72	2614.84	2850.44	-66.5414	0.0000000E+000	0.0000000E+000	0.0000000E+000	66.5414	0.0000000E+000	0.0000000E+000	0.0000000E+000	-66.5414	0.0000000E+000	0.0000000E+000	0.0000000E+000	-23.4586	0.0000000E+000	0.0000000E+000	0.0000000E+000	23.4586	2.30439	66.5414	-3.98434e-06	-6.18614e-06	-2.62167e-09	-6.18352e-06	0.293068	13895.8	5.88901	13889.9
14678.6	2.62677	1.13425	2.8612	-23.3549	4.46656	0.293203	-0.0176732	9.55928	1.50227	1	9	0.00486044	0.00169874	0	-0.000196684	0.000181527	8.9204e-06	3.42826	0.00525118	0.00524179	-0.000314014	-23.3076	2.86589	2.63202	1.13394	0.320868	0.138552	0.349504	23.3549	1502.28	3479.06	3789.55	-66.6451	0.0000000E+000	0.0000000E+000	0.0000000E+000	66.6451	0.0000000E+000	0.0000000E+000	0.0000000E+000	-66.6451	0.0000000E+000	0.0000000E+000	0.0000000E+000	-23.3549	0.0000000E+000	0.0000000E+000	0.0000000E+000	23.3549	2.31586	66.6451	-2.28031e-06	-5.18183e-06	-3.20817e-09	-5.17863e-06	0.293021	16590.2	10.2713	16580
10002.2	2.8844	1.23915	3.13931	-23.2485	4.72556	0.2932	-0.0143216	12.841	2.00069	1	9	0.00463655	0.00147693	0	-0.000198839	-8.57495e-05	6.12007e-06	19.1845	0.00414377	0.00391364	-0.00136169	-23.1976	3.14237	2.88832	1.23779	0.292676	0.125735	0.318541	23.2485	2000.69	4657.05	5068.62	-66.7515	0.0000000E+000	0.0000000E+000	0.0000000E+000	66.7515	0.0000000E+000	0.0000000E+000	0.0000000E+000	-66.7515	0.0000000E+000	0.0000000E+000	0.0000000E+000	-23.2485	0.0000000E+000	0.0000000E+000	0.0000000E+000	23.2485	2.32773	66.7515	-2.15557e-06	-4.1991e-06	1.22807e-09	-4.20032e-06	0.293285	20472.5	5.98741	20478.5
6810.42	3.19521	1.33413	3.46255	-22.6625	4.98655	0.293201	-0.0187159	17.5165	2.60046	1	9	0.00447631	0.00129278	0	-0.00020037	-0.000314844	0.000111941	-113.632	0.0865892	-0.0347109	0.0793275	-24.0954	3.46217	3.1605	1.41346	0.266506	0.111277	0.288804	22.6625	2600.46	6228.06	6749.16	-67.3375	0.0000000E+000	0.0000000E+000	0.0000000E+000	67.3375	0.0000000E+000	0.0000000E+000	0.0000000E+000	-67.3375	0.0000000E+000	0.0000000E+000	0.0000000E+000	-22.6625	0.0000000E+000	0.0000000E+000	0.0000000E+000	22.6625	2.39498	67.3375	-1.53043e-06	-5.48753e-06	5.8926e-09	-5.49342e-06	0.293516	15665.8	16.8223	15682.7
4646	3.4959	1.56315	3.82946	-24.0912	5.37864	0.293162	-0.0383041	21.915	3.65146	1	9	0.00493193	0.00128789	0	-0.00020348	0.00021971	1.29309e-05	-111.635	0.0100404	-0.00370172	0.00933306	-24.2413	3.8299	3.4922	1.57248	0.238388	0.106592	0.261134	24.0912	3651.46	8166.3	8945.47	-65.9088	0.0000000E+000	0.0000000E+000	0.0000000E+000	65.9088	0.0000000E+000	0.0000000E+000	0.0000000E+000	-65.9088	0.0000000E+000	0.0000000E+000	0.0000000E+000	-24.0912	0.0000000E+000	0.0000000E+000	0.0000000E+000	24.0912	2.23645	65.9088	-3.11078e-06	-1.12293e-05	-8.41578e-09	-1.12209e-05	0.292943	7653.56	5.73594	7647.82
3163.08	3.81362	1.76926	4.20405	-24.888	5.95961	0.293123	-0.026807	28.4393	5.03693	1	10	0.00502945	0.00119633	0	-0.000207672	-2.84759e-05	6.97282e-06	-79.8042	0.00582849	0.00103171	0.00573645	-24.953	4.2074	3.81466	1.77499	0.215776	0.100105	0.237866	24.888	5036.93	10857.1	11968.6	-65.112	0.0000000E+000	0.0000000E+000	0.0000000E+000	65.112	0.0000000E+000	0.0000000E+000	0.0000000E+000	-65.112	0.0000000E+000	0.0000000E+000	0.0000000E+000	-24.888	0.0000000E+000	0.0000000E+000	0.0000000E+000	24.888	2.1555	65.112	-4.19126e-06	-7.85773e-06	7.63351e-10	-7.85849e-06	0.293151	10934.6	1.06226	10935.6
2155.69	4.18735	2.02236	4.65015	-25.7791	6.41183	0.293161	-0.01115	36.5069	6.90492	1	10	0.00495421	0.00106539	0	-0.000209046	-0.000238479	8.67718e-06	-79.2519	0.00814463	0.0015189	0.00800174	-25.8596	4.655	4.18887	2.03036	0.193645	0.0935244	0.215047	25.7791	6904.92	14296.8	15876.9	-64.2209	0.0000000E+000	0.0000000E+000	0.0000000E+000	64.2209	0.0000000E+000	0.0000000E+000	0.0000000E+000	-64.2209	0.0000000E+000	0.0000000E+000	0.0000000E+000	-25.7791	0.0000000E+000	0.0000000E+000	0.0000000E+000	25.7791	2.07053	64.2209	-1.37469e-06	-3.26875e-06	2.65905e-09	-3.27141e-06	0.293399	26292.4	21.3882	26313.8
1468.59	4.56895	2.34971	5.13775	-27.2157	6.86304	0.293148	-0.0112654	46.1218	9.64691	1	10	0.00488651	0.000951101	0	-0.000209483	-8.57495e-05	9.20059e-06	27.077	0.00967362	0.00861335	-0.00440331	-27.1282	5.1434	4.57756	2.3453	0.17309	0.0890161	0.194638	27.2157	9646.91	18758.2	21093.4	-62.7843	0.0000000E+000	0.0000000E+000	0.0000000E+000	62.7843	0.0000000E+000	0.0000000E+000	0.0000000E+000	-62.7843	0.0000000E+000	0.0000000E+000	0.0000000E+000	-27.2157	0.0000000E+000	0.0000000E+000	0.0000000E+000	27.2157	1.94448	62.7843	-4.36477e-07	-3.30244e-06	9.66006e-10	-3.30341e-06	0.293234	26021.9	7.61173	26029.5
1000.32	4.98235	2.78021	5.70556	-29.162	7.31485	0.293153	-0.0115447	57.2274	13.5882	1	10	0.00484277	0.000848781	0	-0.000210963	0.000124254	5.70675e-06	-81.8067	0.00672347	0.000958178	0.00665484	-29.2156	5.70964	4.98331	2.78686	0.153052	0.0854046	0.175268	29.162	13588.2	24351.1	27885.8	-60.838	0.0000000E+000	0.0000000E+000	0.0000000E+000	60.838	0.0000000E+000	0.0000000E+000	0.0000000E+000	-60.838	0.0000000E+000	0.0000000E+000	0.0000000E+000	-29.162	0.0000000E+000	0.0000000E+000	0.0000000E+000	29.162	1.79208	60.838	-1.48055e-06	-3.38436e-06	-1.43447e-09	-3.38293e-06	0.293029	25392.8	10.7628	25382.1
681.09	5.45531	3.37723	6.41608	-31.7605	7.76555	0.293143	-0.011649	69.1919	19.1706	1	10	0.00481197	0.000749986	0	-0.000211819	0.000162436	6.77992e-06	-45.2876	0.00904006	0.00636012	0.0064243	-31.7793	6.42487	5.46167	3.38365	0.13252	0.0820391	0.155858	31.7605	19170.7	30966.8	36420.5	-58.2395	0.0000000E+000	0.0000000E+000	0.0000000E+000	58.2395	0.0000000E+000	0.0000000E+000	0.0000000E+000	-58.2395	0.0000000E+000	0.0000000E+000	0.0000000E+000	-31.7605	0.0000000E+000	0.0000000E+000	0.0000000E+000	31.7605	1.61532	58.2395	-8.56026e-07	-3.41482e-06	-1.89222e-09	-3.41292e-06	0.292981	25164.7	13.9443	25150.8
463.961	5.99465	4.22182	7.33209	-35.1557	8.21735	0.293141	-0.0104202	81.253	26.9391	1	10	0.0048026	0.000655011	0	-0.000213443	4.7889e-05	8.67874e-06	-86.0966	0.0132498	0.000901972	0.013219	-35.236	7.34045	5.99555	4.23504	0.111509	0.0785315	0.136387	35.1557	26939.1	38251.4	46785.5	-54.8443	0.0000000E+000	0.0000000E+000	0.0000000E+000	54.8443	0.0000000E+000	0.0000000E+000	0.0000000E+000	-54.8443	0.0000000E+000	0.0000000E+000	0.0000000E+000	-35.1557	0.0000000E+000	0.0000000E+000	0.0000000E+000	35.1557	1.41992	54.8443	-1.62329e-06	-3.05461e-06	-4.99015e-10	-3.05411e-06	0.293094	28131.9	4.59576	28127.3
316.316	6.638	5.4296	8.57576	-39.2817	8.66506	0.293127	-0.0117644	92.6683	37.1469	1	10	0.00477264	0.000556527	0	-0.000214368	6.69802e-05	1.22433e-05	-72.1291	0.0219995	0.00675105	0.0209381	-39.3613	8.59425	6.64475	5.45054	0.0902593	0.0738283	0.116608	39.2817	37146.9	45414.2	58671.4	-50.7183	0.0000000E+000	0.0000000E+000	0.0000000E+000	50.7183	0.0000000E+000	0.0000000E+000	0.0000000E+000	-50.7183	0.0000000E+000	0.0000000E+000	0.0000000E+000	-39.2817	0.0000000E+000	0.0000000E+000	0.0000000E+000	39.2817	1.22256	50.7183	-9.25566e-07	-3.44847e-06	-7.87982e-10	-3.44768e-06	0.29306	24916.4	5.69347	24910.8
215.345	7.57455	7.05858	10.3536	-42.9806	9.11456	0.293136	-0.01115	104.705	48.6653	1	10	0.00476353	0.000460084	0	-0.000215319	0.000181527	6.16069e-06	-70.3291	0.0133904	0.00450744	0.0126089	-43.0146	10.3655	7.57905	7.07119	0.0706599	0.0658466	0.0965846	42.9806	48665.3	52222.7	71382.9	-47.0194	0.0000000E+000	0.0000000E+000	0.0000000E+000	47.0194	0.0000000E+000	0.0000000E+000	0.0000000E+000	-47.0194	0.0000000E+000	0.0000000E+000	0.0000000E+000	-42.9806	0.0000000E+000	0.0000000E+000	0.0000000E+000	42.9806	1.0731	47.0194	-9.50571e-07	-3.26847e-06	-2.02404e-09	-3.26645e-06	0.292954	26290.1	16.2804	26273.8
146.737	8.95825	9.22386	12.8581	-45.8369	9.56052	0.293131	-0.012483	117.589	60.5119	1	10	0.00475415	0.000369741	0	-0.00021631	-4.75671e-05	5.82591e-06	-68.2375	0.0157567	0.00584197	0.0146337	-45.8636	12.8726	8.9641	9.23849	0.0541841	0.0557906	0.0777722	45.8369	60511.9	58769.4	84353.6	-44.1631	0.0000000E+000	0.0000000E+000	0.0000000E+000	44.1631	0.0000000E+000	0.0000000E+000	0.0000000E+000	-44.1631	0.0000000E+000	0.0000000E+000	0.0000000E+000	-45.8369	0.0000000E+000	0.0000000E+000	0.0000000E+000	45.8369	0.971205	44.1631	-9.91509e-07	-3.65916e-06	5.93781e-10	-3.65975e-06	0.293178	23482.4	3.81054	23486.2
100.032	11.0988	11.8698	16.2504	-46.9226	10.0118	0.293129	-0.011608	134.041	71.5151	1	10	0.00475273	0.000292469	0	-0.000218007	0.000200619	8.39665e-06	-42.5505	0.0287095	0.0211498	0.0194145	-46.9149	16.279	11.1199	11.8892	0.042029	0.0449486	0.0615371	46.9226	71515.1	66869.8	97908	-43.0774	0.0000000E+000	0.0000000E+000	0.0000000E+000	43.0774	0.0000000E+000	0.0000000E+000	0.0000000E+000	-43.0774	0.0000000E+000	0.0000000E+000	0.0000000E+000	-46.9226	0.0000000E+000	0.0000000E+000	0.0000000E+000	46.9226	0.935045	43.0774	-1.69677e-06	-3.40265e-06	-2.32879e-09	-3.40032e-06	0.292929	25252.3	17.2828	25235
68.104	14.3387	14.9789	20.7356	-46.251	10.7254	0.293177	-0.00547964	156.015	81.413	1	11	0.00475694	0.000229409	0	-0.0002194	-9.38465e-06	1.61044e-05	-31.8857	0.0701993	0.0596065	0.0370811	-46.203	20.8036	14.3983	15.016	0.0333485	0.0348374	0.0482262	46.251	81413	77933.4	112702	-43.749	0.0000000E+000	0.0000000E+000	0.0000000E+000	43.749	0.0000000E+000	0.0000000E+000	0.0000000E+000	-43.749	0.0000000E+000	0.0000000E+000	0.0000000E+000	-46.251	0.0000000E+000	0.0000000E+000	0.0000000E+000	46.251	0.95726	43.7491	-1.39328e-06	-1.6065e-06	5.14245e-11	-1.60656e-06	0.293186	53502.9	1.71264	53504.6
46.4415	19.0769	17.919	26.1729	-43.2073	11.1617	0.293174	-0.00570267	191.249	89.6445	1	11	0.00476024	0.000181877	0	-0.000220116	-0.000104841	8.71112e-06	-109.756	0.0478958	-0.0161893	0.0450768	-43.3034	26.192	19.0608	17.9641	0.0278487	0.0261583	0.0382074	43.2073	89644.5	95437.3	130937	-46.7927	0.0000000E+000	0.0000000E+000	0.0000000E+000	46.7927	0.0000000E+000	0.0000000E+000	0.0000000E+000	-46.7927	0.0000000E+000	0.0000000E+000	0.0000000E+000	-43.2073	0.0000000E+000	0.0000000E+000	0.0000000E+000	43.2073	1.06462	46.7927	-7.15618e-07	-1.67188e-06	5.97872e-10	-1.67247e-06	0.293279	51410.1	18.3845	51428.5
31.6296	24.9832	19.9859	31.9937	-38.6589	11.5915	0.293174	-0.00584266	251.77	98.2476	1	11	0.00474166	0.000148206	0	-0.00022049	0.000124254	2.40005e-05	-17.4899	0.16194	0.154454	0.0486691	-38.5546	32.1448	25.1377	20.0346	0.0244073	0.0195252	0.0312562	38.6589	98247.6	122814	157276	-51.3411	0.0000000E+000	0.0000000E+000	0.0000000E+000	51.3411	0.0000000E+000	0.0000000E+000	0.0000000E+000	-51.3411	0.0000000E+000	0.0000000E+000	0.0000000E+000	-38.6589	0.0000000E+000	0.0000000E+000	0.0000000E+000	38.6589	1.25004	51.3411	-3.74489e-07	-1.71292e-06	-7.25973e-10	-1.71219e-06	0.29305	50178.1	21.2667	50156.9
21.5517	31.6524	20.7684	37.8576	-33.2704	12.0124	0.293169	-0.00595733	355.579	107.012	1	11	0.00475249	0.000125536	0	-0.000221143	-0.000123932	6.31916e-06	70.5098	0.0503375	0.0167949	-0.0474531	-33.1964	37.8457	31.6692	20.7209	0.0220851	0.0144909	0.0264147	33.2704	107012	163094	195067	-56.7296	0.0000000E+000	0.0000000E+000	0.0000000E+000	56.7296	0.0000000E+000	0.0000000E+000	0.0000000E+000	-56.7296	0.0000000E+000	0.0000000E+000	0.0000000E+000	-33.2704	0.0000000E+000	0.0000000E+000	0.0000000E+000	33.2704	1.52407	56.7296	-6.52401e-07	-1.7465e-06	7.38304e-10	-1.74724e-06	0.293293	49211.4	20.8033	49232.2
14.6852	38.048	20.0101	42.989	-27.7407	12.4722	0.293185	-0.00535864	541.616	117.348	1	11	0.00475374	0.00011058	0	-0.00022177	-9.38465e-06	1.06773e-05	173.983	0.0965566	-0.0960247	-0.0101206	-27.7884	42.8993	37.952	20	0.0205881	0.0108277	0.0232617	27.7407	117348	223130	252106	-62.2593	0.0000000E+000	0.0000000E+000	0.0000000E+000	62.2593	0.0000000E+000	0.0000000E+000	0.0000000E+000	-62.2593	0.0000000E+000	0.0000000E+000	0.0000000E+000	-27.7407	0.0000000E+000	0.0000000E+000	0.0000000E+000	27.7407	1.90144	62.2593	-6.27162e-07	-1.57107e-06	5.0289e-11	-1.57112e-06	0.293194	54712.5	1.75131	54714.3
10.0032	43.5279	18.1756	47.1702	-22.6636	12.9228	0.293183	-0.00529014	875.369	129.968	1	11	0.00474487	0.00010059	0	-0.000223109	-8.57495e-05	1.11466e-05	44.5466	0.110812	0.0789737	-0.0777335	-22.5396	47.2133	43.6069	18.0979	0.0195628	0.00816871	0.0211998	22.6636	129967	311252	337297	-67.3364	0.0000000E+000	0.0000000E+000	0.0000000E+000	67.3364	0.0000000E+000	0.0000000E+000	0.0000000E+000	-67.3364	0.0000000E+000	0.0000000E+000	0.0000000E+000	-22.6636	0.0000000E+000	0.0000000E+000	0.0000000E+000	22.6636	2.39485	67.3364	-1.33866e-06	-1.55098e-06	4.53627e-10	-1.55143e-06	0.293269	55420.7	16.2093	55436.9
6.81719	48.1577	16.1901	50.8063	-18.5821	13.2625	0.293163	-0.00587058	1442	146.43	1	11	0.00474847	9.34622e-05	0	-0.000223281	-0.000143023	6.34433e-06	-29.1803	0.0678812	0.0592663	0.0330962	-18.5962	50.873	48.2169	16.2232	0.0186565	0.00627212	0.0196826	18.5821	146430	435557	459512	-71.4179	0.0000000E+000	0.0000000E+000	0.0000000E+000	71.4179	0.0000000E+000	0.0000000E+000	0.0000000E+000	-71.4179	0.0000000E+000	0.0000000E+000	0.0000000E+000	-18.5821	0.0000000E+000	0.0000000E+000	0.0000000E+000	18.5821	2.97451	71.4179	-1.71877e-07	-1.72104e-06	8.39629e-10	-1.72187e-06	0.293306	49937.5	24.3627	49961.9
4.63925	51.7837	14.1221	53.6748	-15.2543	13.7464	0.293182	-0.00506414	2429.26	168.163	1	11	0.00475095	8.85135e-05	0	-0.000223195	0.000410622	8.61348e-06	-27.5185	0.0973125	0.0863027	0.0449619	-15.2764	53.7699	51.87	14.167	0.0179743	0.00490182	0.0186307	15.2543	168163	616629	639148	-74.7457	0.0000000E+000	0.0000000E+000	0.0000000E+000	74.7457	0.0000000E+000	0.0000000E+000	0.0000000E+000	-74.7457	0.0000000E+000	0.0000000E+000	0.0000000E+000	-15.2543	0.0000000E+000	0.0000000E+000	0.0000000E+000	15.2543	3.66686	74.7457	8.56261e-08	-1.48471e-06	-2.07945e-09	-1.48263e-06	0.292771	57893.7	81.0843	57812.6
3.1604	54.8015	12.3568	56.1774	-12.7067	14.4395	0.293173	-0.00488747	4075.43	197.179	1	11	0.00474746	8.45084e-05	0	-0.000224749	-0.000143023	4.39908e-06	-117.752	0.052055	-0.0242389	0.0460673	-12.758	56.1639	54.7773	12.4028	0.0173648	0.00391545	0.0178008	12.7067	197179	874477	896431	-77.2933	0.0000000E+000	0.0000000E+000	0.0000000E+000	77.2933	0.0000000E+000	0.0000000E+000	0.0000000E+000	-77.2933	0.0000000E+000	0.0000000E+000	0.0000000E+000	-12.7067	0.0000000E+000	0.0000000E+000	0.0000000E+000	12.7067	4.43494	77.2933	-1.5544e-06	-1.43287e-06	6.99022e-10	-1.43357e-06	0.293316	59984.5	29.2632	60013.8
2.15577	57.3067	10.7125	58.2994	-10.5883	15.952	0.293174	-0.00390286	6891.71	232.692	1	12	0.00474821	8.14453e-05	0	-0.000227896	-0.000181206	8.93455e-06	-53.0523	0.1097	0.0659391	0.0876707	-10.661	58.3803	57.3726	10.8002	0.0168608	0.00315184	0.0171529	10.5883	232692	1.24479e+06	1.26635e+06	-79.4117	0.0000000E+000	0.0000000E+000	0.0000000E+000	79.4117	0.0000000E+000	0.0000000E+000	0.0000000E+000	-79.4117	0.0000000E+000	0.0000000E+000	0.0000000E+000	-10.5883	0.0000000E+000	0.0000000E+000	0.0000000E+000	10.5883	5.34951	79.4117	-3.14672e-06	-1.14422e-06	7.0722e-10	-1.14492e-06	0.293355	75117.8	46.429	75164.2
1.46631	59.5735	9.33668	60.3007	-8.90725	17.4134	0.293173	-0.0040385	11625.2	278.703	1	12	0.00474982	7.87689e-05	0	-0.000229271	9.70657e-06	2.75707e-06	55.1258	0.0350021	0.0200134	-0.028716	-8.87736	60.316	59.5935	9.30797	0.0163836	0.00256772	0.0165836	8.90725	278703	1.77829e+06	1.8e+06	-81.0928	0.0000000E+000	0.0000000E+000	0.0000000E+000	81.0928	0.0000000E+000	0.0000000E+000	0.0000000E+000	-81.0928	0.0000000E+000	0.0000000E+000	0.0000000E+000	-8.90725	0.0000000E+000	0.0000000E+000	0.0000000E+000	8.90725	6.38058	81.0928	-1.37526e-06	-1.18398e-06	-3.92e-11	-1.18394e-06	0.293164	72594.5	2.40351	72592.1
1.00006	61.3566	8.19157	61.901	-7.60445	19.542	0.293179	-0.00388892	19427.9	340.223	1	12	0.00475195	7.67669e-05	0	-0.00022949	0.000181527	2.40704e-06	-58.6282	0.0313552	0.0163232	0.0267713	-7.627	61.9207	61.3729	8.21834	0.0160128	0.00213782	0.0161548	7.60445	340223	2.54835e+06	2.57096e+06	-82.3956	0.0000000E+000	0.0000000E+000	0.0000000E+000	82.3956	0.0000000E+000	0.0000000E+000	0.0000000E+000	-82.3956	0.0000000E+000	0.0000000E+000	0.0000000E+000	-7.60445	0.0000000E+000	0.0000000E+000	0.0000000E+000	7.60445	7.49022	82.3956	-2.18628e-07	-1.14015e-06	-7.05946e-10	-1.13944e-06	0.292997	75388.2	46.6781	75341.5
0.681362	62.823	7.17277	63.2312	-6.5135	22.6542	0.293176	-0.00379899	32565.3	419.051	1	12	0.00474971	7.51166e-05	0	-0.000229436	2.87978e-05	1.61983e-06	-23.1428	0.0215642	0.0198289	0.00847525	-6.51909	63.2518	62.8429	7.18125	0.0157129	0.00179401	0.015815	6.5135	419051	3.67027e+06	3.69412e+06	-83.4865	0.0000000E+000	0.0000000E+000	0.0000000E+000	83.4865	0.0000000E+000	0.0000000E+000	0.0000000E+000	-83.4865	0.0000000E+000	0.0000000E+000	0.0000000E+000	-6.5135	0.0000000E+000	0.0000000E+000	0.0000000E+000	6.5135	8.75854	83.4865	5.37511e-08	-1.11377e-06	-1.09403e-10	-1.11366e-06	0.293147	77172.1	7.58038	77164.5
0.464091	64.1329	6.43338	64.4548	-5.72836	27.2108	0.293186	-0.0032561	53306.3	531.063	1	12	0.00474731	7.36533e-05	0	-0.000230613	-0.000123932	2.83152e-06	2.24693	0.0384438	0.0384143	-0.00150724	-5.72362	64.4929	64.1713	6.43187	0.0154373	0.00154856	0.0155148	5.72836	531063	5.29405e+06	5.32062e+06	-84.2716	0.0000000E+000	0.0000000E+000	0.0000000E+000	84.2716	0.0000000E+000	0.0000000E+000	0.0000000E+000	-84.2716	0.0000000E+000	0.0000000E+000	0.0000000E+000	-5.72836	0.0000000E+000	0.0000000E+000	0.0000000E+000	5.72836	9.96878	84.2716	-1.17698e-06	-9.54644e-07	4.03535e-10	-9.55047e-07	0.29331	90042.1	38.0615	90080.2
0.316193	65.2493	6.13664	65.5373	-5.37281	33.8868	0.293178	-0.00297479	82023.3	719.154	1	12	0.00474964	7.24724e-05	0	-0.00023662	-0.00025757	2.95669e-06	74.7995	0.0407975	0.010697	-0.0393702	-5.33767	65.5442	65.26	6.09727	0.0151915	0.00142874	0.0152585	5.37281	719154	7.64658e+06	7.68032e+06	-84.6272	0.0000000E+000	0.0000000E+000	0.0000000E+000	84.6272	0.0000000E+000	0.0000000E+000	0.0000000E+000	-84.6272	0.0000000E+000	0.0000000E+000	0.0000000E+000	-5.37281	0.0000000E+000	0.0000000E+000	0.0000000E+000	5.37281	10.6327	84.6272	-6.00673e-06	-8.72143e-07	7.66218e-10	-8.72909e-07	0.293436	98554.3	86.5845	98640.8
0.215268	66.2704	6.17582	66.5575	-5.32409	43.6792	0.29319	-0.00249353	119714	1030.72	1	12	0.00475653	7.1465e-05	0	-0.000250199	4.7889e-05	2.63972e-06	-16.8044	0.0369373	0.0353599	0.0106788	-5.33041	66.5937	66.3057	6.1865	0.0149598	0.00139412	0.0150246	5.32409	1.03072e+06	1.10603e+07	1.11082e+07	-84.6759	0.0000000E+000	0.0000000E+000	0.0000000E+000	84.6759	0.0000000E+000	0.0000000E+000	0.0000000E+000	-84.6759	0.0000000E+000	0.0000000E+000	0.0000000E+000	-5.32409	0.0000000E+000	0.0000000E+000	0.0000000E+000	5.32409	10.7306	84.6759	-1.3579e-05	-7.31076e-07	-1.19412e-10	-7.30957e-07	0.293142	117580	19.2053	117561
0.146929	67.2311	6.45877	67.5407	-5.48746	58.0176	0.293172	-0.00244723	167712	1533.67	1	12	0.00474779	7.02953e-05	0	-0.000273625	0.000334257	2.88142e-06	79.644	0.0409903	0.00736856	-0.0403226	-5.45281	67.5442	67.2385	6.41844	0.014738	0.00141586	0.0148059	5.48746	1.53367e+06	1.59644e+07	1.60379e+07	-84.5125	0.0000000E+000	0.0000000E+000	0.0000000E+000	84.5125	0.0000000E+000	0.0000000E+000	0.0000000E+000	-84.5125	0.0000000E+000	0.0000000E+000	0.0000000E+000	-5.48746	0.0000000E+000	0.0000000E+000	0.0000000E+000	5.48746	10.4093	84.5125	-2.3426e-05	-7.1746e-07	-8.18005e-10	-7.16642e-07	0.292838	119797	136.586	119661
0.0999041	68.4924	7.26224	68.8764	-6.05245	79.0947	0.293177	-0.00223085	219364	2438.75	1	12	0.00475209	6.89946e-05	0	-0.000303918	-0.000123932	1.78405e-06	-6.16616	0.0258579	0.0257083	0.00277745	-6.05249	68.9022	68.5181	7.26502	0.0144378	0.00153084	0.0145188	6.05245	2.43875e+06	2.30006e+07	2.31295e+07	-83.9475	0.0000000E+000	0.0000000E+000	0.0000000E+000	83.9475	0.0000000E+000	0.0000000E+000	0.0000000E+000	-83.9475	0.0000000E+000	0.0000000E+000	0.0000000E+000	-6.05245	0.0000000E+000	0.0000000E+000	0.0000000E+000	6.05245	9.43131	83.9475	-3.02927e-05	-6.54034e-07	2.76474e-10	-6.5431e-07	0.293301	131419	55.5537	131475
0.0680626	70.035	8.57617	70.5582	-6.98142	110.021	0.293179	-0.00208199	272658	4028.19	1	12	0.00474857	6.73001e-05	0	-0.00033428	0.000143345	2.16901e-06	4.90973	0.032229	0.0321107	-0.00275836	-6.97603	70.5897	70.0672	8.57341	0.0140676	0.00172265	0.0141727	6.98142	4.02819e+06	3.28952e+07	3.31409e+07	-83.0186	0.0000000E+000	0.0000000E+000	0.0000000E+000	83.0186	0.0000000E+000	0.0000000E+000	0.0000000E+000	-83.0186	0.0000000E+000	0.0000000E+000	0.0000000E+000	-6.98142	0.0000000E+000	0.0000000E+000	0.0000000E+000	6.98142	8.16624	83.0186	-3.03627e-05	-6.10395e-07	-2.98443e-10	-6.10097e-07	0.293036	140817	68.8501	140748
0.0464052	71.7935	10.4811	72.5545	-8.30588	155.372	0.293176	-0.00195442	327226	6828.57	1	12	0.00475179	6.54928e-05	0	-0.000350037	-6.66583e-05	2.49643e-06	-34.4159	0.0381176	0.0314454	0.0215439	-8.31912	72.5887	71.8249	10.5026	0.0136382	0.00199102	0.0137827	8.30588	6.82857e+06	4.67746e+07	4.72704e+07	-81.6941	0.0000000E+000	0.0000000E+000	0.0000000E+000	81.6941	0.0000000E+000	0.0000000E+000	0.0000000E+000	-81.6941	0.0000000E+000	0.0000000E+000	0.0000000E+000	-8.30588	0.0000000E+000	0.0000000E+000	0.0000000E+000	8.30588	6.84983	81.6941	-1.57569e-05	-5.7299e-07	1.30279e-10	-5.7312e-07	0.293243	150006	34.1064	150041
0.0315922	73.738	12.6491	74.815	-9.73384	221.978	0.293173	-0.0015977	398273	11384.7	1	12	0.00474875	6.34732e-05	0	-0.000335343	-4.75671e-05	2.03152e-06	20.4444	0.032006	0.02999	-0.0111796	-9.72152	74.8427	73.768	12.6379	0.0131739	0.00225986	0.0133663	9.73384	1.13847e+07	6.63672e+07	6.73366e+07	-80.2662	0.0000000E+000	0.0000000E+000	0.0000000E+000	80.2662	0.0000000E+000	0.0000000E+000	0.0000000E+000	-80.2662	0.0000000E+000	0.0000000E+000	0.0000000E+000	-9.73384	0.0000000E+000	0.0000000E+000	0.0000000E+000	9.73384	5.82951	80.2662	1.46941e-05	-4.68402e-07	7.59978e-11	-4.68478e-07	0.29322	183497	29.7723	183527
0.0215268	76.2119	15.052	77.6841	-11.1722	319.717	0.293175	-0.00100545	491187	18440.4	1	12	0.00475317	6.1186e-05	0	-0.000285408	-2.84759e-05	1.81684e-06	-11.1323	0.0296937	0.029135	0.0057331	-11.1722	77.7138	76.241	15.0577	0.0126287	0.00249419	0.0128727	11.1722	1.84404e+07	9.33684e+07	9.5172e+07	-78.8278	0.0000000E+000	0.0000000E+000	0.0000000E+000	78.8278	0.0000000E+000	0.0000000E+000	0.0000000E+000	-78.8278	0.0000000E+000	0.0000000E+000	0.0000000E+000	-11.1722	0.0000000E+000	0.0000000E+000	0.0000000E+000	11.1722	5.06324	78.8278	4.99351e-05	-2.94772e-07	2.8631e-11	-2.94801e-07	0.293204	291587	28.3216	291616
0.0146812	79.3809	18.1984	81.4402	-12.9122	463.019	0.293174	-0.000343414	595697	29745.1	1	12	0.00475214	5.83513e-05	0	-0.000218463	0.000124254	1.88436e-06	-18.7683	0.0322934	0.0305762	0.0103901	-12.9145	81.4723	79.4114	18.2088	0.0119685	0.00274382	0.0122789	12.9122	2.97451e+07	1.29747e+08	1.33113e+08	-77.0878	0.0000000E+000	0.0000000E+000	0.0000000E+000	77.0878	0.0000000E+000	0.0000000E+000	0.0000000E+000	-77.0878	0.0000000E+000	0.0000000E+000	0.0000000E+000	-12.9122	0.0000000E+000	0.0000000E+000	0.0000000E+000	12.9122	4.36196	77.0878	6.69452e-05	-1.0068e-07	-4.26705e-11	-1.00638e-07	0.29305	853705	361.819	853343
0.0100092	82.9245	22.7002	85.9754	-15.3094	673.201	0.293173	0.000173928	700475	48831.8	1	12	0.00474834	5.5229e-05	0	-0.000186422	-4.75671e-05	2.66546e-06	-10.005	0.048262	0.0475281	0.00838476	-15.3064	86.0235	82.9721	22.7086	0.0112185	0.003071	0.0116312	15.3094	4.88318e+07	1.78384e+08	1.84947e+08	-74.6906	0.0000000E+000	0.0000000E+000	0.0000000E+000	74.6906	0.0000000E+000	0.0000000E+000	0.0000000E+000	-74.6906	0.0000000E+000	0.0000000E+000	0.0000000E+000	-15.3094	0.0000000E+000	0.0000000E+000	0.0000000E+000	15.3094	3.65303	74.6906	3.2041e-05	5.09911e-08	-8.27327e-12	5.09994e-08	0.29322	1.6856e+06	273.487	1.68587e+06