File: txt/19746_R319_UC100_SOC50_C02.mpt
EC-Lab ASCII FILE
Nb header lines : 65

Potentio Electrochemical Impedance Spectroscopy

Run on channel : 2 (SN 66139)
User :
CE vs. WE compliance from -10 V to 10 V
Electrode connection : standard
Potential control : Ewe
Ewe ctrl range : min = -10.00 V, max = 10.00 V
Safety Limits :
	Do not start on E overload
Acquisition started on : 12/15/2025 16:10:27.500
Technique started on : 12/15/2025 16:10:30.195
Loaded Setting File :  C:\Users\Celltest\OneDrive - store-dot.com\Documents\EC-Lab\Data\@Biologic Test Protocols\cathode half cell EIS SOC50.mps
Saved on :
	File : 19746_R319_UC100_SOC50_C02.mpr
	Directory : C:\Users\Celltest\OneDrive - store-dot.com\Documents\EC-Lab\Data\Michael\
	Host : 169.254.61.224
Device : VMP-3e (SN .003165)
Address : USB
EC-LAB for windows v11.62 (software)
Internet server v27.00 (firmware)
Command interpretor v12.03 (firmware)
Electrode material :
Initial state :
Electrolyte :
Comments :
Electrode surface area : 0.001 cm²
Characteristic mass : 0.001 g
Equivalent Weight : 0.000 g/eq.
Density : 0.000 g/cm3
Volume (V) : 0.001 cm³
Record Ece
Cycle Definition : Charge/Discharge alternance
Mode                Multi sine
E (V)               0.0000
vs.                 Eoc
tE (h:m:s)          0:00:0.0000
record              0
dI                  0.000
unit dI             mA
dt (s)              0.000
fi                  1.000
unit fi             MHz
ff                  0.100
unit ff             mHz
Nd                  10
Points              per decade
spacing             Logarithmic
Va (mV)             5.0
pw                  0.10
Na                  2
corr                0
E range min (V)     -10.000
E range max (V)     10.000
I Range             Auto
Bandwidth           5
nc cycles           0
goto Ns'            0
nr cycles           0
inc. cycle          0

freq/Hz	Re(Z)/Ohm	-Im(Z)/Ohm	|Z|/Ohm	Phase(Z)/deg	time/s	<Ewe>/V	<I>/mA	Cs/µF	Cp/µF	cycle number	I Range	|Ewe|/V	|I|/A	Ns	(Q-Qo)/mA.h	<Ece>/V	|Ece|/V	Phase(Zce)/deg	|Zce|/Ohm	Re(Zce)/Ohm	-Im(Zce)/Ohm	Phase(Zwe-ce)/deg	|Zwe-ce|/Ohm	Re(Zwe-ce)/Ohm	-Im(Zwe-ce)/Ohm	Re(Y)/Ohm-1	Im(Y)/Ohm-1	|Y|/Ohm-1	Phase(Y)/deg	Re(C)/nF	Im(C)/nF	|C|/nF	Phase(C)/deg	Re(M)	Im(M)	|M|	Phase(M)/deg	Re(Permittivity)	Im(Permittivity)	|Permittivity|	Phase(Permittivity)/deg	Re(Resistivity)/Ohm.cm	Im(Resistivity)/Ohm.cm	|Resistivity|/Ohm.cm	Phase(Resistivity)/deg	Re(Conductivity)/mS/cm	Im(Conductivity)/mS/cm	|Conductivity|/mS/cm	Phase(Conductivity)/deg	Tan(Delta)	Loss Angle(Delta)/deg	dq/mA.h	Pwe/W	Pce/W	Pwe-ce/W	<Ewe-Ece>/V	Rwe/Ohm	Rce/Ohm	Rwe-ce/Ohm		Ewe-Ece/V
1.00002e+06	1.00824	-0.18734	1.0255	10.526	2.69452	3.88264	-0.0255485	-0.849536	-0.0283512	1	9	0.000203132	0.000198081	0	-1.48277e-05	9.04036e-05	0.000179581	-0.990611	0.906603	0.906467	0.0156739	5.12324	1.92239	1.91471	-0.171666	0.958725	-0.178139	0.975135	-10.526	-28.3512	152.583	155.195	-100.526	0.0000000E+000	0.0000000E+000	0.0000000E+000	100.526	0.0000000E+000	0.0000000E+000	0.0000000E+000	-100.526	0.0000000E+000	0.0000000E+000	0.0000000E+000	10.526	0.0000000E+000	0.0000000E+000	0.0000000E+000	-10.526	5.38189	79.474	-1.48277e-05	-9.91954e-05	-2.30967e-09	-9.91931e-05	3.88254	151971	3.53852	151968
630957	0.464725	0.171658	0.495415	-20.273	3.46055	3.88256	-0.0394784	1.46946	0.176419	1	9	0.000164572	0.00033219	0	-2.19439e-05	0.000128585	0.000110948	-103.46	0.333991	-0.0777423	0.324817	-52.065	0.629479	0.386983	0.496475	1.89347	0.6994	2.01851	20.273	176.419	477.616	509.157	-69.727	0.0000000E+000	0.0000000E+000	0.0000000E+000	69.727	0.0000000E+000	0.0000000E+000	0.0000000E+000	-69.727	0.0000000E+000	0.0000000E+000	0.0000000E+000	-20.273	0.0000000E+000	0.0000000E+000	0.0000000E+000	20.273	2.70728	69.727	-2.68639e-06	-0.000153277	-5.07635e-09	-0.000153272	3.88243	98346.3	3.2571	98343.1
398103	0.650585	0.148644	0.66735	-12.8699	4.22855	3.88271	-0.00454176	2.68954	0.133433	1	9	0.000643152	0.000963741	0	-2.38482e-05	0.000262221	4.56235e-05	-170.87	0.04734	-0.0467403	0.0075113	-14.4991	0.623709	0.603845	0.156155	1.46082	0.333764	1.49846	12.8699	133.433	584.011	599.061	-77.1301	0.0000000E+000	0.0000000E+000	0.0000000E+000	77.1301	0.0000000E+000	0.0000000E+000	0.0000000E+000	-77.1301	0.0000000E+000	0.0000000E+000	0.0000000E+000	-12.8699	0.0000000E+000	0.0000000E+000	0.0000000E+000	12.8699	4.37681	77.1301	-8.7149e-07	-1.76343e-05	-1.19094e-09	-1.76331e-05	3.88245	854891	57.7356	854834
251206	0.786559	0.29933	0.84159	-20.8346	4.99954	3.88264	-0.0134062	2.1166	0.267756	1	9	0.00216801	0.00257609	0	-2.66098e-05	0.000109494	2.38576e-05	122.259	0.00926118	-0.00494309	-0.00783169	-20.4527	0.834203	0.781616	0.291499	1.11053	0.422619	1.18823	20.8346	267.756	703.59	752.816	-69.1654	0.0000000E+000	0.0000000E+000	0.0000000E+000	69.1654	0.0000000E+000	0.0000000E+000	0.0000000E+000	-69.1654	0.0000000E+000	0.0000000E+000	0.0000000E+000	-20.8346	0.0000000E+000	0.0000000E+000	0.0000000E+000	20.8346	2.62773	69.1654	-6.12032e-07	-5.20516e-05	-1.46791e-09	-5.20501e-05	3.88253	289615	8.16743	289606
158486	0.914038	0.427723	1.00916	-25.0772	5.76554	3.88259	-0.0188813	2.34783	0.421762	1	9	0.00515193	0.00510514	0	-3.22858e-05	-4.32323e-05	1.94983e-05	78.6338	0.00381935	0.000752712	-0.00374445	-24.8663	1.00827	0.914791	0.423979	0.897512	0.41999	0.990918	25.0772	421.762	901.3	995.1	-64.9228	0.0000000E+000	0.0000000E+000	0.0000000E+000	64.9228	0.0000000E+000	0.0000000E+000	0.0000000E+000	-64.9228	0.0000000E+000	0.0000000E+000	0.0000000E+000	-25.0772	0.0000000E+000	0.0000000E+000	0.0000000E+000	25.0772	2.13699	64.9228	-1.37748e-06	-7.33083e-05	8.16282e-10	-7.33091e-05	3.88263	205631	2.28969	205633
100004	1.08608	0.531202	1.20902	-26.0633	6.53152	3.88254	-0.0163859	2.99602	0.578355	1	9	0.00539414	0.00446158	0	-3.42218e-05	0.000338585	2.2258e-05	115.397	0.00498883	-0.00213967	-0.00450668	-25.9156	1.20512	1.08394	0.526695	0.743004	0.363405	0.827115	26.0633	578.355	1182.48	1316.35	-63.9367	0.0000000E+000	0.0000000E+000	0.0000000E+000	63.9367	0.0000000E+000	0.0000000E+000	0.0000000E+000	-63.9367	0.0000000E+000	0.0000000E+000	0.0000000E+000	-26.0633	0.0000000E+000	0.0000000E+000	0.0000000E+000	26.0633	2.04456	63.9367	1.38306e-05	-6.36188e-05	-5.548e-09	-6.36132e-05	3.8822	236945	20.6632	236924
63093.8	1.29873	0.591854	1.42723	-24.4996	7.29752	3.88253	-0.0170191	4.26205	0.732927	1	9	0.00541908	0.00379693	0	-4.47142e-05	0.000109494	1.97829e-05	62.1604	0.00521023	0.00243316	-0.00460719	-24.2909	1.42754	1.30116	0.587246	0.637574	0.290555	0.700659	24.4996	732.927	1608.29	1767.42	-65.5004	0.0000000E+000	0.0000000E+000	0.0000000E+000	65.5004	0.0000000E+000	0.0000000E+000	0.0000000E+000	-65.5004	0.0000000E+000	0.0000000E+000	0.0000000E+000	-24.4996	0.0000000E+000	0.0000000E+000	0.0000000E+000	24.4996	2.19434	65.5004	-1.45464e-05	-6.6077e-05	-1.86349e-09	-6.60752e-05	3.88242	228128	6.43363	228122
39814.1	1.51174	0.599342	1.62621	-21.6263	8.06355	3.88254	-0.0152685	6.66974	0.905954	1	9	0.00547992	0.00336975	0	-4.02307e-05	-2.41414e-05	1.31298e-05	24.4167	0.00389637	0.0035479	-0.00161064	-21.5277	1.62892	1.51528	0.597732	0.571641	0.226633	0.614927	21.6263	905.954	2285.11	2458.14	-68.3737	0.0000000E+000	0.0000000E+000	0.0000000E+000	68.3737	0.0000000E+000	0.0000000E+000	0.0000000E+000	-68.3737	0.0000000E+000	0.0000000E+000	0.0000000E+000	-21.6263	0.0000000E+000	0.0000000E+000	0.0000000E+000	21.6263	2.52232	68.3737	7.65716e-06	-5.92806e-05	3.68604e-10	-5.9281e-05	3.88256	254284	1.58112	254285
25116.9	1.71883	0.583335	1.81512	-18.7462	8.82953	3.88253	-0.0275597	10.8627	1.12192	1	9	0.00514887	0.00283666	0	-4.04846e-05	3.31311e-05	1.66191e-05	-5.78209	0.00585869	0.00582888	0.000590236	-18.7048	1.82082	1.72466	0.583925	0.521703	0.177055	0.550929	18.7462	1121.92	3305.81	3491	-71.2538	0.0000000E+000	0.0000000E+000	0.0000000E+000	71.2538	0.0000000E+000	0.0000000E+000	0.0000000E+000	-71.2538	0.0000000E+000	0.0000000E+000	0.0000000E+000	-18.7462	0.0000000E+000	0.0000000E+000	0.0000000E+000	18.7462	2.94655	71.2538	-3.20352e-06	-0.000107001	-9.13083e-10	-0.000107	3.8825	140877	1.20216	140876
15847.7	1.87495	0.54426	1.95234	-16.187	9.47152	3.88252	-0.0221963	18.4522	1.434	1	9	0.00496087	0.00254098	0	-4.53862e-05	-2.41414e-05	1.10531e-05	-32.5254	0.00434995	0.00366767	0.00233885	-16.2228	1.95652	1.87861	0.546599	0.4919	0.142789	0.512205	16.187	1434	4940.04	5143.97	-73.813	0.0000000E+000	0.0000000E+000	0.0000000E+000	73.813	0.0000000E+000	0.0000000E+000	0.0000000E+000	-73.813	0.0000000E+000	0.0000000E+000	0.0000000E+000	-16.187	0.0000000E+000	0.0000000E+000	0.0000000E+000	16.187	3.44495	73.813	-3.34982e-06	-8.61775e-05	5.3585e-10	-8.6178e-05	3.88254	174918	1.08763	174919
10002.2	2.01016	0.521434	2.07669	-14.5419	10.1136	3.88253	-0.0183227	30.5158	1.92388	1	9	0.00502548	0.00241994	0	-4.86629e-05	-0.000176868	7.59643e-06	119.353	0.00313909	-0.00153874	-0.00273609	-14.4795	2.07452	2.00862	0.518698	0.466109	0.120908	0.481535	14.5419	1923.88	7416.7	7662.16	-75.4581	0.0000000E+000	0.0000000E+000	0.0000000E+000	75.4581	0.0000000E+000	0.0000000E+000	0.0000000E+000	-75.4581	0.0000000E+000	0.0000000E+000	0.0000000E+000	-14.5419	0.0000000E+000	0.0000000E+000	0.0000000E+000	14.5419	3.85507	75.4581	-1.00775e-07	-7.11384e-05	3.2407e-09	-7.11416e-05	3.8827	211897	9.65295	211907
6309.38	2.1319	0.52858	2.19645	-13.925	10.6335	3.88252	-0.020483	47.7225	2.76376	1	9	0.00475913	0.00216674	0	-5.31356e-05	0.000281312	9.98782e-06	-26.6706	0.00460962	0.00411916	0.00206907	-13.9515	2.20095	2.13602	0.530649	0.4419	0.109564	0.45528	13.925	2763.76	11147	11484.5	-76.075	0.0000000E+000	0.0000000E+000	0.0000000E+000	76.075	0.0000000E+000	0.0000000E+000	0.0000000E+000	-76.075	0.0000000E+000	0.0000000E+000	0.0000000E+000	-13.925	0.0000000E+000	0.0000000E+000	0.0000000E+000	13.925	4.03326	76.075	-2.41254e-06	-7.95255e-05	-5.76211e-09	-7.95197e-05	3.88224	189548	13.7339	189535
3983.6	2.2636	0.553399	2.33027	-13.738	11.196	3.88234	-0.0933732	72.1949	4.07165	1	9	0.00466639	0.00200251	0	-6.20024e-05	5.2222e-05	1.61465e-05	11.308	0.00806311	0.00790659	-0.00158103	-13.6544	2.33758	2.27151	0.551818	0.416858	0.101912	0.429135	13.738	4071.65	16654.5	17145	-76.262	0.0000000E+000	0.0000000E+000	0.0000000E+000	76.262	0.0000000E+000	0.0000000E+000	0.0000000E+000	-76.262	0.0000000E+000	0.0000000E+000	0.0000000E+000	-13.738	0.0000000E+000	0.0000000E+000	0.0000000E+000	13.738	4.09037	76.262	-8.01598e-06	-0.000362506	-4.87613e-09	-0.000362501	3.88228	41578.7	0.559282	41578.1
2510.8	2.41065	0.625584	2.4905	-14.5478	12.0208	3.88247	0.0138577	101.326	6.39321	1	9	0.00460063	0.00184727	0	-7.17509e-05	0.000395857	6.54476e-06	-24.9768	0.00354294	0.0032116	0.00149601	-14.5625	2.49399	2.41387	0.62708	0.388652	0.100858	0.401525	14.5478	6393.21	24635.9	25451.9	-75.4522	0.0000000E+000	0.0000000E+000	0.0000000E+000	75.4522	0.0000000E+000	0.0000000E+000	0.0000000E+000	-75.4522	0.0000000E+000	0.0000000E+000	0.0000000E+000	-14.5478	0.0000000E+000	0.0000000E+000	0.0000000E+000	14.5478	3.85344	75.4522	-2.09202e-08	5.38022e-05	5.48568e-09	5.37967e-05	3.88207	280166	28.5658	280137
1585.51	2.5615	0.723644	2.66175	-15.7754	12.9218	3.88248	0.0115112	138.716	10.2528	1	9	0.0045656	0.00171526	0	-6.80107e-05	-4.32323e-05	4.41317e-06	87.2147	0.00257289	0.000125024	-0.00256985	-15.7215	2.66118	2.56162	0.721074	0.361542	0.102139	0.375692	15.7754	10252.8	36291.9	37712.4	-74.2246	0.0000000E+000	0.0000000E+000	0.0000000E+000	74.2246	0.0000000E+000	0.0000000E+000	0.0000000E+000	-74.2246	0.0000000E+000	0.0000000E+000	0.0000000E+000	-15.7754	0.0000000E+000	0.0000000E+000	0.0000000E+000	15.7754	3.53972	74.2246	2.74732e-06	4.46922e-05	-4.97657e-10	4.46927e-05	3.88252	337277	3.75565	337281
1000.32	2.74522	0.872784	2.88062	-17.637	13.8228	3.88248	0.00875505	182.295	16.7346	1	9	0.00454667	0.00157836	0	-6.47448e-05	-0.000195959	6.47097e-06	75.8187	0.0040998	0.00100441	-0.00397486	-17.5556	2.88038	2.74622	0.868809	0.33083	0.10518	0.347148	17.637	16734.6	52636.4	55232.6	-72.363	0.0000000E+000	0.0000000E+000	0.0000000E+000	72.363	0.0000000E+000	0.0000000E+000	0.0000000E+000	-72.363	0.0000000E+000	0.0000000E+000	0.0000000E+000	-17.637	0.0000000E+000	0.0000000E+000	0.0000000E+000	17.637	3.14536	72.363	2.36544e-06	3.39913e-05	-1.71563e-09	3.3993e-05	3.88268	443456	22.3824	443478
631.01	3.02188	1.03352	3.19373	-18.8813	14.9696	3.88244	-0.0410479	244.043	25.5567	1	10	0.00459952	0.00144017	0	-6.98315e-05	0.000262221	4.72019e-06	-11.8304	0.00327752	0.0032079	0.000671941	-18.8741	3.19698	3.02509	1.03419	0.296265	0.101326	0.313114	18.8813	25556.7	74724.9	78974.4	-71.1187	0.0000000E+000	0.0000000E+000	0.0000000E+000	71.1187	0.0000000E+000	0.0000000E+000	0.0000000E+000	-71.1187	0.0000000E+000	0.0000000E+000	0.0000000E+000	-18.8813	0.0000000E+000	0.0000000E+000	0.0000000E+000	18.8813	2.92388	71.1187	-5.77142e-06	-0.000159366	-1.07636e-08	-0.000159355	3.88218	94583.2	6.38817	94576.8
398.089	3.37845	1.21708	3.59099	-19.8114	15.8709	3.88245	-0.0405376	328.489	37.7337	1	10	0.00456794	0.00127205	0	-7.94824e-05	1.40403e-05	1.55899e-05	-89.4935	0.0122557	0.000108339	0.0122552	-19.9946	3.59527	3.37856	1.22933	0.261993	0.0943822	0.278475	19.8114	37733.7	104744	111333	-70.1886	0.0000000E+000	0.0000000E+000	0.0000000E+000	70.1886	0.0000000E+000	0.0000000E+000	0.0000000E+000	-70.1886	0.0000000E+000	0.0000000E+000	0.0000000E+000	-19.8114	0.0000000E+000	0.0000000E+000	0.0000000E+000	19.8114	2.77587	70.1886	-5.60552e-06	-0.000157385	-5.69158e-10	-0.000157385	3.88244	95774.2	0.346352	95773.9
251.044	3.8548	1.33153	4.07829	-19.0559	16.7691	3.88244	-0.0414018	476.124	50.7531	1	10	0.00456253	0.00111873	0	-9.04286e-05	3.31311e-05	7.2508e-06	-107.458	0.00648125	-0.00194442	0.00618271	-19.147	4.07848	3.85286	1.33771	0.231764	0.0800558	0.245201	19.0559	50753.1	146932	155450	-70.9441	0.0000000E+000	0.0000000E+000	0.0000000E+000	70.9441	0.0000000E+000	0.0000000E+000	0.0000000E+000	-70.9441	0.0000000E+000	0.0000000E+000	0.0000000E+000	-19.0559	0.0000000E+000	0.0000000E+000	0.0000000E+000	19.0559	2.89503	70.9441	-5.82122e-06	-0.00016074	-1.37169e-09	-0.000160739	3.88241	93774.6	0.800233	93773.8
158.428	4.36783	1.29355	4.55535	-16.4968	17.6739	3.88246	-0.0391257	776.614	62.6217	1	10	0.0045413	0.000996914	0	-0.000102149	0.000147676	9.30427e-06	8.90806	0.00933307	0.0092205	-0.00144522	-16.4465	4.56378	4.37705	1.2921	0.210486	0.0623359	0.219522	16.4968	62621.7	211451	220529	-73.5032	0.0000000E+000	0.0000000E+000	0.0000000E+000	73.5032	0.0000000E+000	0.0000000E+000	0.0000000E+000	-73.5032	0.0000000E+000	0.0000000E+000	0.0000000E+000	-16.4968	0.0000000E+000	0.0000000E+000	0.0000000E+000	16.4968	3.37664	73.5032	-5.45734e-06	-0.000151904	-5.77794e-09	-0.000151898	3.88231	99230.3	3.7744	99226.5
100.032	4.83684	1.17021	4.97639	-13.6007	18.5728	3.88244	-0.0413348	1359.61	75.1827	1	10	0.0045399	0.000912288	0	-0.00011161	-5.05058e-06	1.10641e-05	-12.48	0.0121279	0.0118413	0.00262083	-13.5979	4.98852	4.84869	1.17284	0.195314	0.0472538	0.200949	13.6007	75182.7	310752	319718	-76.3993	0.0000000E+000	0.0000000E+000	0.0000000E+000	76.3993	0.0000000E+000	0.0000000E+000	0.0000000E+000	-76.3993	0.0000000E+000	0.0000000E+000	0.0000000E+000	-13.6007	0.0000000E+000	0.0000000E+000	0.0000000E+000	13.6007	4.1333	76.3993	-4.24953e-06	-0.00016048	2.08764e-10	-0.00016048	3.88244	93926.7	0.122187	93926.8
63.0823	5.19249	0.953197	5.27926	-10.4021	19.49	3.88245	-0.0365143	2646.85	86.2878	1	10	0.00454104	0.000860166	0	-0.000121692	0.000166767	6.49811e-06	-54.6452	0.00755449	0.00437131	0.00616132	-10.4592	5.28467	5.19687	0.959358	0.186307	0.0342008	0.18942	10.4021	86287.8	470048	477903	-79.5979	0.0000000E+000	0.0000000E+000	0.0000000E+000	79.5979	0.0000000E+000	0.0000000E+000	0.0000000E+000	-79.5979	0.0000000E+000	0.0000000E+000	0.0000000E+000	-10.4021	0.0000000E+000	0.0000000E+000	0.0000000E+000	10.4021	5.44745	79.5979	-4.09504e-06	-0.000141765	-6.08939e-09	-0.000141759	3.88228	106327	4.56716	106322
39.8089	5.44125	0.726287	5.48951	-7.60279	20.3908	3.88245	-0.0392338	5504.67	96.3566	1	10	0.00455407	0.000829596	0	-0.000131057	0.000262221	2.17366e-05	-46.969	0.0262014	0.0178797	0.0191528	-7.77561	5.50979	5.45913	0.74544	0.180564	0.0241014	0.182166	7.60279	96356.6	721891	728294	-82.3972	0.0000000E+000	0.0000000E+000	0.0000000E+000	82.3972	0.0000000E+000	0.0000000E+000	0.0000000E+000	-82.3972	0.0000000E+000	0.0000000E+000	0.0000000E+000	-7.60279	0.0000000E+000	0.0000000E+000	0.0000000E+000	7.60279	7.49187	82.3972	-4.90788e-06	-0.000152323	-1.02879e-08	-0.000152313	3.88219	98956.9	6.68356	98950.2
25.1044	5.58878	0.53984	5.61479	-5.51729	21.2701	3.88244	-0.0403178	11743.7	108.559	1	10	0.00454387	0.000809268	0	-0.00014185	-0.000253232	7.99991e-06	-49.2735	0.00988536	0.0064497	0.00749145	-5.58696	5.62193	5.59523	0.547332	0.177276	0.0171237	0.178101	5.51729	108559	1.12388e+06	1.12911e+06	-84.4827	0.0000000E+000	0.0000000E+000	0.0000000E+000	84.4827	0.0000000E+000	0.0000000E+000	0.0000000E+000	-84.4827	0.0000000E+000	0.0000000E+000	0.0000000E+000	-5.51729	0.0000000E+000	0.0000000E+000	0.0000000E+000	5.51729	10.3527	84.4827	-4.07586e-06	-0.000156532	1.02097e-08	-0.000156542	3.8827	96296	6.28089	96302.3
15.8576	5.68078	0.397865	5.69469	-4.00629	22.148	3.88245	-0.044192	25225.9	123.134	1	10	0.00454681	0.000798429	0	-0.000153782	-0.000119596	1.64436e-05	-49.8012	0.020595	0.0132929	0.0157307	-4.15445	5.70907	5.69407	0.413596	0.175173	0.0122686	0.175602	4.00629	123134	1.75813e+06	1.76243e+06	-85.9937	0.0000000E+000	0.0000000E+000	0.0000000E+000	85.9937	0.0000000E+000	0.0000000E+000	0.0000000E+000	-85.9937	0.0000000E+000	0.0000000E+000	0.0000000E+000	-4.00629	0.0000000E+000	0.0000000E+000	0.0000000E+000	4.00629	14.2781	85.9937	-6.89772e-06	-0.000171573	5.28517e-09	-0.000171578	3.88257	87854	2.70627	87856.7
10.0032	5.72696	0.301694	5.7349	-3.01553	23.1298	3.88243	-0.0406456	52737	145.947	1	10	0.00453968	0.000791588	0	-0.000162171	0.000147676	7.00695e-06	63.2672	0.00885177	0.0039818	-0.00790563	-2.93461	5.73846	5.73094	0.293788	0.17413	0.00917306	0.174371	3.01553	145947	2.77047e+06	2.77431e+06	-86.9845	0.0000000E+000	0.0000000E+000	0.0000000E+000	86.9845	0.0000000E+000	0.0000000E+000	0.0000000E+000	-86.9845	0.0000000E+000	0.0000000E+000	0.0000000E+000	-3.01553	0.0000000E+000	0.0000000E+000	0.0000000E+000	3.01553	18.9827	86.9845	1.27448e-06	-0.000157804	-6.00239e-09	-0.000157798	3.88229	95519.1	3.63326	95515.5
6.31058	5.77237	0.245952	5.77761	-2.43981	24.0533	3.88244	-0.0464532	102542	185.825	1	10	0.00454401	0.000786486	0	-0.000172552	-0.000100505	6.65232e-06	-35.4624	0.00845827	0.00688923	0.00490723	-2.48547	5.7847	5.77926	0.250859	0.172925	0.00736808	0.173082	2.43981	185825	4.36123e+06	4.36519e+06	-87.5602	0.0000000E+000	0.0000000E+000	0.0000000E+000	87.5602	0.0000000E+000	0.0000000E+000	0.0000000E+000	-87.5602	0.0000000E+000	0.0000000E+000	0.0000000E+000	-2.43981	0.0000000E+000	0.0000000E+000	0.0000000E+000	2.43981	23.4695	87.5602	2.44785e-06	-0.000180352	4.66877e-09	-0.000180357	3.88254	83577.4	2.16357	83579.6
3.97785	5.81181	0.215234	5.81579	-2.12092	25.0604	3.88247	-0.035231	185892	254.604	1	10	0.00454061	0.000780738	0	-0.000190554	0.000281312	5.46572e-06	-48.9884	0.00700071	0.00459394	0.00528257	-2.17121	5.82058	5.8164	0.220517	0.171828	0.00636346	0.171946	2.12092	254604	6.87488e+06	6.87959e+06	-87.8791	0.0000000E+000	0.0000000E+000	0.0000000E+000	87.8791	0.0000000E+000	0.0000000E+000	0.0000000E+000	-87.8791	0.0000000E+000	0.0000000E+000	0.0000000E+000	-2.12092	0.0000000E+000	0.0000000E+000	0.0000000E+000	2.12092	27.0023	87.8791	-1.46477e-05	-0.000136783	-9.91091e-09	-0.000136773	3.88219	110200	7.98479	110192
2.51367	5.83974	0.209579	5.8435	-2.05537	27.062	3.88249	-0.0250177	302109	388.609	1	11	0.00454102	0.000777106	0	-0.000199506	7.13128e-05	4.50587e-06	81.3754	0.00579827	0.000869512	-0.0057327	-1.9989	5.84417	5.84061	0.203846	0.17102	0.00613764	0.17113	2.05537	388609	1.08283e+07	1.08352e+07	-87.9446	0.0000000E+000	0.0000000E+000	0.0000000E+000	87.9446	0.0000000E+000	0.0000000E+000	0.0000000E+000	-87.9446	0.0000000E+000	0.0000000E+000	0.0000000E+000	-2.05537	0.0000000E+000	0.0000000E+000	0.0000000E+000	2.05537	27.8641	87.9446	1.83126e-06	-9.71309e-05	-1.78408e-09	-9.71291e-05	3.88242	155190	2.8505	155187
1.58469	5.88836	0.229881	5.89284	-2.23569	29.4974	3.88249	-0.0228664	436892	664.861	1	11	0.00454678	0.000771576	0	-0.000214521	5.2222e-05	4.2857e-06	57.9441	0.00555447	0.00294802	-0.00470758	-2.18886	5.89561	5.8913	0.225173	0.169568	0.00661993	0.169697	2.23569	664860	1.70303e+07	1.70432e+07	-87.7643	0.0000000E+000	0.0000000E+000	0.0000000E+000	87.7643	0.0000000E+000	0.0000000E+000	0.0000000E+000	-87.7643	0.0000000E+000	0.0000000E+000	0.0000000E+000	-2.23569	0.0000000E+000	0.0000000E+000	0.0000000E+000	2.23569	25.6148	87.7643	-1.56901e-05	-8.87786e-05	-1.19413e-09	-8.87774e-05	3.88244	169790	2.28378	169788
1.00469	5.96287	0.256549	5.96839	-2.4636	240.315	3.88246	-0.0272351	617470	1140.89	1	11	0.00497999	0.000834395	0	-0.00496009	0.000128585	2.76223e-07	-3.32592	0.000331046	0.000330489	1.92059e-05	-2.46365	5.96872	5.9632	0.256568	0.167394	0.00720205	0.167549	2.4636	1.14089e+06	2.65172e+07	2.65417e+07	-87.5364	0.0000000E+000	0.0000000E+000	0.0000000E+000	87.5364	0.0000000E+000	0.0000000E+000	0.0000000E+000	-87.5364	0.0000000E+000	0.0000000E+000	0.0000000E+000	-2.4636	0.0000000E+000	0.0000000E+000	0.0000000E+000	2.4636	23.2426	87.5364	-0.00471498	-0.000105739	-3.50204e-09	-0.000105736	3.88233	142553	4.7213	142548
0.632957	6.02287	0.313343	6.03101	-2.97816	240.315	3.88246	-0.0272351	802464	2166.14	1	11	0.00499199	0.000827721	0	-0.00496009	0.000128585	3.00112e-07	-50.5396	0.000362577	0.000230434	0.000279932	-2.9807	6.03126	6.0231	0.313623	0.165586	0.00861469	0.16581	2.97816	2.16614e+06	4.1636e+07	4.16923e+07	-87.0218	0.0000000E+000	0.0000000E+000	0.0000000E+000	87.0218	0.0000000E+000	0.0000000E+000	0.0000000E+000	-87.0218	0.0000000E+000	0.0000000E+000	0.0000000E+000	-2.97816	0.0000000E+000	0.0000000E+000	0.0000000E+000	2.97816	19.2213	87.0218	0.000000000000000E+000	-0.000105739	-3.50204e-09	-0.000105736	3.88233	142553	4.7213	142548
0.401878	6.08222	0.387151	6.09453	-3.64213	240.315	3.88246	-0.0272351	1.02293e+06	4127.88	1	11	0.00500608	0.000821407	0	-0.00496009	0.000128585	3.42244e-07	44.8271	0.000416657	0.000295508	-0.00029373	-3.6392	6.0948	6.08251	0.386857	0.16375	0.0104232	0.164082	3.64213	4.12787e+06	6.48498e+07	6.4981e+07	-86.3579	0.0000000E+000	0.0000000E+000	0.0000000E+000	86.3579	0.0000000E+000	0.0000000E+000	0.0000000E+000	-86.3579	0.0000000E+000	0.0000000E+000	0.0000000E+000	-3.64213	0.0000000E+000	0.0000000E+000	0.0000000E+000	3.64213	15.7102	86.3579	0.000000000000000E+000	-0.000105739	-3.50204e-09	-0.000105736	3.88233	142553	4.7213	142548
0.251173	6.18201	0.504486	6.20256	-4.66532	240.316	3.88246	-0.0272351	1.25602e+06	8309.11	1	11	0.00500661	0.000807185	0	-0.00496009	0.000128585	2.858e-07	-30.3919	0.00035407	0.000305415	0.000179128	-4.66674	6.20288	6.18231	0.504665	0.16069	0.0131132	0.161224	4.66532	8.30911e+06	1.0182e+08	1.02159e+08	-85.3347	0.0000000E+000	0.0000000E+000	0.0000000E+000	85.3347	0.0000000E+000	0.0000000E+000	0.0000000E+000	-85.3347	0.0000000E+000	0.0000000E+000	0.0000000E+000	-4.66532	0.0000000E+000	0.0000000E+000	0.0000000E+000	4.66532	12.2541	85.3347	0.000000000000000E+000	-0.000105739	-3.50204e-09	-0.000105736	3.88233	142553	4.7213	142548
0.160751	6.31266	0.583777	6.33959	-5.28353	240.316	3.88246	-0.0272351	1.69597e+06	14381.1	1	11	0.00500193	0.000788999	0	-0.00496009	0.000128585	2.72473e-07	-30.5151	0.00034534	0.000297509	0.000175352	-5.28486	6.33991	6.31296	0.583953	0.157069	0.0145253	0.157739	5.28353	1.43811e+07	1.55509e+08	1.56173e+08	-84.7165	0.0000000E+000	0.0000000E+000	0.0000000E+000	84.7165	0.0000000E+000	0.0000000E+000	0.0000000E+000	-84.7165	0.0000000E+000	0.0000000E+000	0.0000000E+000	-5.28353	0.0000000E+000	0.0000000E+000	0.0000000E+000	5.28353	10.8135	84.7165	0.000000000000000E+000	-0.000105739	-3.50204e-09	-0.000105736	3.88233	142553	4.7213	142548
0.100469	6.43538	0.812971	6.48652	-7.19995	240.316	3.88246	-0.0272351	1.94855e+06	30608.2	1	11	0.00500462	0.000771541	0	-0.00496009	0.000128585	4.68677e-07	72.788	0.000607456	0.000179751	-0.000580252	-7.19467	6.48663	6.43556	0.812391	0.15295	0.019322	0.154166	7.19995	3.06082e+07	2.4229e+08	2.44216e+08	-82.8	0.0000000E+000	0.0000000E+000	0.0000000E+000	82.8	0.0000000E+000	0.0000000E+000	0.0000000E+000	-82.8	0.0000000E+000	0.0000000E+000	0.0000000E+000	-7.19995	0.0000000E+000	0.0000000E+000	0.0000000E+000	7.19995	7.91587	82.8	0.000000000000000E+000	-0.000105739	-3.50204e-09	-0.000105736	3.88233	142553	4.7213	142548
0.0602816	6.67991	1.01394	6.75643	-8.63104	240.316	3.88246	-0.0272351	2.60388e+06	58642.8	1	11	0.00500022	0.000740069	0	-0.00496009	0.000128585	7.0101e-07	7.40055	0.000947223	0.000939332	-0.000122007	-8.62883	6.75734	6.68085	1.01382	0.146331	0.0222116	0.148007	8.63104	5.86428e+07	3.86342e+08	3.90767e+08	-81.369	0.0000000E+000	0.0000000E+000	0.0000000E+000	81.369	0.0000000E+000	0.0000000E+000	0.0000000E+000	-81.369	0.0000000E+000	0.0000000E+000	0.0000000E+000	-8.63104	0.0000000E+000	0.0000000E+000	0.0000000E+000	8.63104	6.58805	81.369	0.000000000000000E+000	-0.000105739	-3.50204e-09	-0.000105736	3.88233	142553	4.7213	142548
0.0401878	6.97183	1.23157	7.07977	-10.0179	240.317	3.88246	-0.0272351	3.21565e+06	97307.4	1	11	0.00500014	0.000706257	0	-0.00496009	0.000128585	5.06697e-07	-88.7039	0.00071744	1.62279e-05	0.000717256	-10.0236	7.07991	6.97185	1.23228	0.139094	0.0245708	0.141247	10.0179	9.73074e+07	5.50852e+08	5.5938e+08	-79.9821	0.0000000E+000	0.0000000E+000	0.0000000E+000	79.9821	0.0000000E+000	0.0000000E+000	0.0000000E+000	-79.9821	0.0000000E+000	0.0000000E+000	0.0000000E+000	-10.0179	0.0000000E+000	0.0000000E+000	0.0000000E+000	10.0179	5.66094	79.9821	0.000000000000000E+000	-0.000105739	-3.50204e-09	-0.000105736	3.88233	142553	4.7213	142548
0.0200939	7.68161	1.84712	7.90056	-13.5207	240.317	3.88246	-0.0272351	4.28807e+06	234388	1	11	0.00499877	0.00063271	0	-0.00496009	0.000128585	9.04543e-07	-85.0598	0.00142963	0.000123114	0.00142432	-13.5305	7.90102	7.68173	1.84854	0.123065	0.0295923	0.126573	13.5207	2.34388e+08	9.74748e+08	1.00253e+09	-76.4793	0.0000000E+000	0.0000000E+000	0.0000000E+000	76.4793	0.0000000E+000	0.0000000E+000	0.0000000E+000	-76.4793	0.0000000E+000	0.0000000E+000	0.0000000E+000	-13.5207	0.0000000E+000	0.0000000E+000	0.0000000E+000	13.5207	4.15869	76.4793	0.000000000000000E+000	-0.000105739	-3.50204e-09	-0.000105736	3.88233	142553	4.7213	142548
0.00796479	8.64929	2.20705	8.92643	-14.3148	20329.3	3.88247	0.00100642	9.05386e+06	553480	1	11	0.00499525	0.000559602	0	-0.061134	0.000204949	1.84228e-07	-85.4132	0.000329213	2.63271e-05	0.000328159	-14.3168	8.92654	8.64931	2.20738	0.108549	0.0276985	0.112027	14.3148	5.5348e+08	2.16905e+09	2.23856e+09	-75.6852	0.0000000E+000	0.0000000E+000	0.0000000E+000	75.6852	0.0000000E+000	0.0000000E+000	0.0000000E+000	-75.6852	0.0000000E+000	0.0000000E+000	0.0000000E+000	-14.3148	0.0000000E+000	0.0000000E+000	0.0000000E+000	14.3148	3.91894	75.6852	-0.0561739	3.90739e-06	2.06264e-10	3.90718e-06	3.88227	3.85772e+06	203.642	3.85751e+06
0.00497799	9.29973	2.3344	9.58824	-14.0911	20329.3	3.88247	0.00100642	1.36959e+07	811827	1	11	0.00500262	0.000521746	0	-0.061134	0.000204949	2.22358e-07	-87.1264	0.000426182	2.13654e-05	0.000425646	-14.0936	9.58836	9.29975	2.33483	0.101156	0.025392	0.104294	14.0911	8.11827e+08	3.23414e+09	3.33447e+09	-75.9089	0.0000000E+000	0.0000000E+000	0.0000000E+000	75.9089	0.0000000E+000	0.0000000E+000	0.0000000E+000	-75.9089	0.0000000E+000	0.0000000E+000	0.0000000E+000	-14.0911	0.0000000E+000	0.0000000E+000	0.0000000E+000	14.0911	3.98377	75.9089	0.000000000000000E+000	3.90739e-06	2.06264e-10	3.90718e-06	3.88227	3.85772e+06	203.642	3.85751e+06
0.00318591	9.77415	3.09768	10.2533	-17.5848	20329.3	3.88247	0.00100642	1.61268e+07	1.47197e+06	1	11	0.00500523	0.00048816	0	-0.061134	0.000204949	1.92609e-07	-127.951	0.000394561	-0.00024265	0.000311126	-17.5868	10.2531	9.7739	3.09799	0.0929724	0.0294654	0.0975299	17.5848	1.47197e+09	4.64451e+09	4.87218e+09	-72.4152	0.0000000E+000	0.0000000E+000	0.0000000E+000	72.4152	0.0000000E+000	0.0000000E+000	0.0000000E+000	-72.4152	0.0000000E+000	0.0000000E+000	0.0000000E+000	-17.5848	0.0000000E+000	0.0000000E+000	0.0000000E+000	17.5848	3.15531	72.4152	0.000000000000000E+000	3.90739e-06	2.06264e-10	3.90718e-06	3.88227	3.85772e+06	203.642	3.85751e+06
0.0019912	10.1429	3.7948	10.8295	-20.5126	20329.3	3.88247	0.00100642	2.10629e+07	2.58629e+06	1	11	0.00500851	0.000462487	0	-0.061134	0.000204949	4.03121e-07	-67.8732	0.000871638	0.000328309	0.000807444	-20.5159	10.8301	10.1432	3.79561	0.0864854	0.0323572	0.0923402	20.5126	2.58629e+09	6.91272e+09	7.38069e+09	-69.4874	0.0000000E+000	0.0000000E+000	0.0000000E+000	69.4874	0.0000000E+000	0.0000000E+000	0.0000000E+000	-69.4874	0.0000000E+000	0.0000000E+000	0.0000000E+000	-20.5126	0.0000000E+000	0.0000000E+000	0.0000000E+000	20.5126	2.67284	69.4874	0.000000000000000E+000	3.90739e-06	2.06264e-10	3.90718e-06	3.88227	3.85772e+06	203.642	3.85751e+06
0.00129428	9.85347	5.01498	11.0563	-26.9741	20329.3	3.88247	0.00100642	2.45202e+07	5.04482e+06	1	11	0.00500489	0.000452675	0	-0.061134	0.000204949	1.21199e-06	58.8405	0.00267739	0.00138534	-0.00229112	-26.9603	11.0565	9.85485	5.01269	0.080607	0.0410254	0.0904465	26.9741	5.04482e+09	9.91209e+09	1.1122e+10	-63.0259	0.0000000E+000	0.0000000E+000	0.0000000E+000	63.0259	0.0000000E+000	0.0000000E+000	0.0000000E+000	-63.0259	0.0000000E+000	0.0000000E+000	0.0000000E+000	-26.9741	0.0000000E+000	0.0000000E+000	0.0000000E+000	26.9741	1.96481	63.0259	0.000000000000000E+000	3.90739e-06	2.06264e-10	3.90718e-06	3.88227	3.85772e+06	203.642	3.85751e+06
0.000796479	10.8614	7.33714	13.1074	-34.04	20329.3	3.88247	0.00100642	2.72345e+07	8.53376e+06	1	11	0.00501331	0.00038248	0	-0.061134	0.000204949	1.79577e-06	44.7751	0.00469507	0.00333292	-0.00330685	-34.0199	13.1083	10.8647	7.33384	0.0632198	0.0427065	0.0762928	34.04	8.53376e+09	1.26328e+10	1.52451e+10	-55.96	0.0000000E+000	0.0000000E+000	0.0000000E+000	55.96	0.0000000E+000	0.0000000E+000	0.0000000E+000	-55.96	0.0000000E+000	0.0000000E+000	0.0000000E+000	-34.04	0.0000000E+000	0.0000000E+000	0.0000000E+000	34.04	1.48033	55.96	0.000000000000000E+000	3.90739e-06	2.06264e-10	3.90718e-06	3.88227	3.85772e+06	203.642	3.85751e+06
0.000497799	10.7194	10.4874	14.9964	-44.373	20329.3	3.88247	0.00100642	3.04859e+07	1.49094e+07	1	11	0.00500743	0.000333909	0	-0.061134	0.000204949	2.03168e-06	-57.3096	0.00608453	0.00328626	0.00512075	-44.3782	15.0023	10.7227	10.4925	0.047665	0.0466331	0.0666828	44.373	1.49094e+10	1.52393e+10	2.13196e+10	-45.627	0.0000000E+000	0.0000000E+000	0.0000000E+000	45.627	0.0000000E+000	0.0000000E+000	0.0000000E+000	-45.627	0.0000000E+000	0.0000000E+000	0.0000000E+000	-44.373	0.0000000E+000	0.0000000E+000	0.0000000E+000	44.373	1.02213	45.627	0.000000000000000E+000	3.90739e-06	2.06264e-10	3.90718e-06	3.88227	3.85772e+06	203.642	3.85751e+06
0.000298679	10.0089	16.3452	19.1662	-58.5189	20329.3	3.88247	0.00100642	3.26006e+07	2.37101e+07	1	11	0.0050136	0.000261586	0	-0.061134	0.000204949	2.52585e-06	50.7159	0.00965591	0.00611379	-0.00747383	-58.4916	19.163	10.015	16.3377	0.0272468	0.0444957	0.0521752	58.5189	2.37101e+10	1.45188e+10	2.78022e+10	-31.4811	0.0000000E+000	0.0000000E+000	0.0000000E+000	31.4811	0.0000000E+000	0.0000000E+000	0.0000000E+000	-31.4811	0.0000000E+000	0.0000000E+000	0.0000000E+000	-58.5189	0.0000000E+000	0.0000000E+000	0.0000000E+000	58.5189	0.612347	31.4811	0.000000000000000E+000	3.90739e-06	2.06264e-10	3.90718e-06	3.88227	3.85772e+06	203.642	3.85751e+06
9.95598e-05	8.09958	71.029	71.4893	-83.4945	20329.3	3.88247	0.00100642	2.25061e+07	2.22172e+07	1	11	0.00500181	6.99659e-05	0	-0.061134	0.000204949	3.55159e-06	-88.0118	0.0507618	0.00176113	0.0507312	-83.4977	71.5399	8.10134	71.0797	0.00158482	0.013898	0.0139881	83.4945	2.22172e+10	2.53347e+09	2.23612e+10	-6.50546	0.0000000E+000	0.0000000E+000	0.0000000E+000	6.50546	0.0000000E+000	0.0000000E+000	0.0000000E+000	-6.50546	0.0000000E+000	0.0000000E+000	0.0000000E+000	-83.4945	0.0000000E+000	0.0000000E+000	0.0000000E+000	83.4945	0.114032	6.50546	0.000000000000000E+000	3.90739e-06	2.06264e-10	3.90718e-06	3.88227	3.85772e+06	203.642	3.85751e+06