File: txt/19747_R319_UC100_SOC50_C03.mpt
EC-Lab ASCII FILE
Nb header lines : 65

Potentio Electrochemical Impedance Spectroscopy

Run on channel : 3 (SN 65921)
User :
CE vs. WE compliance from -10 V to 10 V
Electrode connection : standard
Potential control : Ewe
Ewe ctrl range : min = -10.00 V, max = 10.00 V
Safety Limits :
	Do not start on E overload
Acquisition started on : 12/15/2025 16:10:36.749
Technique started on : 12/15/2025 16:10:38.524
Loaded Setting File :  C:\Users\Celltest\OneDrive - store-dot.com\Documents\EC-Lab\Data\@Biologic Test Protocols\cathode half cell EIS SOC50.mps
Saved on :
	File : 19747_R319_UC100_SOC50_C03.mpr
	Directory : C:\Users\Celltest\OneDrive - store-dot.com\Documents\EC-Lab\Data\Michael\
	Host : 169.254.61.224
Device : VMP-3e (SN .003165)
Address : USB
EC-LAB for windows v11.62 (software)
Internet server v27.00 (firmware)
Command interpretor v12.03 (firmware)
Electrode material :
Initial state :
Electrolyte :
Comments :
Electrode surface area : 0.001 cm²
Characteristic mass : 0.001 g
Equivalent Weight : 0.000 g/eq.
Density : 0.000 g/cm3
Volume (V) : 0.001 cm³
Record Ece
Cycle Definition : Charge/Discharge alternance
Mode                Multi sine
E (V)               0.0000
vs.                 Eoc
tE (h:m:s)          0:00:0.0000
record              0
dI                  0.000
unit dI             mA
dt (s)              0.000
fi                  1.000
unit fi             MHz
ff                  0.100
unit ff             mHz
Nd                  10
Points              per decade
spacing             Logarithmic
Va (mV)             5.0
pw                  0.10
Na                  2
corr                0
E range min (V)     -10.000
E range max (V)     10.000
I Range             Auto
Bandwidth           5
nc cycles           0
goto Ns'            0
nr cycles           0
inc. cycle          0

freq/Hz	Re(Z)/Ohm	-Im(Z)/Ohm	|Z|/Ohm	Phase(Z)/deg	time/s	<Ewe>/V	<I>/mA	Cs/µF	Cp/µF	cycle number	I Range	|Ewe|/V	|I|/A	Ns	(Q-Qo)/mA.h	<Ece>/V	|Ece|/V	Phase(Zce)/deg	|Zce|/Ohm	Re(Zce)/Ohm	-Im(Zce)/Ohm	Phase(Zwe-ce)/deg	|Zwe-ce|/Ohm	Re(Zwe-ce)/Ohm	-Im(Zwe-ce)/Ohm	Re(Y)/Ohm-1	Im(Y)/Ohm-1	|Y|/Ohm-1	Phase(Y)/deg	Re(C)/nF	Im(C)/nF	|C|/nF	Phase(C)/deg	Re(M)	Im(M)	|M|	Phase(M)/deg	Re(Permittivity)	Im(Permittivity)	|Permittivity|	Phase(Permittivity)/deg	Re(Resistivity)/Ohm.cm	Im(Resistivity)/Ohm.cm	|Resistivity|/Ohm.cm	Phase(Resistivity)/deg	Re(Conductivity)/mS/cm	Im(Conductivity)/mS/cm	|Conductivity|/mS/cm	Phase(Conductivity)/deg	Tan(Delta)	Loss Angle(Delta)/deg	dq/mA.h	Pwe/W	Pce/W	Pwe-ce/W	<Ewe-Ece>/V	Rwe/Ohm	Rce/Ohm	Rwe-ce/Ohm		Ewe-Ece/V
1.00002e+06	1.59331	3.086	3.47305	-62.6925	1.77455	3.88443	-0.0944532	0.0515723	0.0407181	1	10	0.000221356	6.37355e-05	0	-5.56377e-05	-0.000127773	0.000196312	-63.2855	3.08011	1.38465	2.75133	-62.9712	6.55307	2.97796	5.83733	0.132093	0.255844	0.287932	62.6925	40.7181	21.0229	45.8249	-27.3075	0.0000000E+000	0.0000000E+000	0.0000000E+000	27.3075	0.0000000E+000	0.0000000E+000	0.0000000E+000	-27.3075	0.0000000E+000	0.0000000E+000	0.0000000E+000	-62.6925	0.0000000E+000	0.0000000E+000	0.0000000E+000	62.6925	0.516304	27.3075	-5.56377e-05	-0.000366897	1.20686e-08	-0.000366909	3.88456	41125.5	1.35277	41126.8
630957	0.442213	0.239936	0.503112	-28.4834	2.94354	3.88407	-0.102526	1.05129	0.239104	1	9	0.000153543	0.000305187	0	-9.25651e-05	6.31676e-05	0.000113755	-101.394	0.372739	-0.0736363	0.365393	-58.6633	0.708712	0.368577	0.605329	1.74704	0.947907	1.98763	28.4834	239.104	440.679	501.367	-61.5166	0.0000000E+000	0.0000000E+000	0.0000000E+000	61.5166	0.0000000E+000	0.0000000E+000	0.0000000E+000	-61.5166	0.0000000E+000	0.0000000E+000	0.0000000E+000	-28.4834	0.0000000E+000	0.0000000E+000	0.0000000E+000	28.4834	1.84304	61.5166	-1.07674e-05	-0.00039822	-6.47635e-09	-0.000398213	3.88401	37883.6	0.61611	37882.9
398103	0.636934	0.147516	0.653793	-13.04	3.71156	3.88415	-0.0790688	2.7101	0.137969	1	9	0.000569356	0.00087085	0	-0.00011276	0.00021592	4.72046e-05	159.616	0.0542052	-0.0508109	-0.0188801	-12.3784	0.600073	0.586123	0.128636	1.49009	0.345111	1.52954	13.04	137.969	595.714	611.482	-76.96	0.0000000E+000	0.0000000E+000	0.0000000E+000	76.96	0.0000000E+000	0.0000000E+000	0.0000000E+000	-76.96	0.0000000E+000	0.0000000E+000	0.0000000E+000	-13.04	0.0000000E+000	0.0000000E+000	0.0000000E+000	13.04	4.31772	76.96	-1.01029e-05	-0.000307115	-1.70725e-08	-0.000307098	3.88394	49123.7	2.73079	49121
251206	0.770954	0.303734	0.828628	-21.503	4.47754	3.88404	-0.0950677	2.08591	0.280262	1	9	0.00195794	0.00236287	0	-0.000130163	5.88539e-06	5.66552e-05	88.8885	0.0239773	0.000465129	-0.0239728	-19.9336	0.820582	0.771419	0.279761	1.12282	0.442358	1.20681	21.503	280.262	711.375	764.592	-68.497	0.0000000E+000	0.0000000E+000	0.0000000E+000	68.497	0.0000000E+000	0.0000000E+000	0.0000000E+000	-68.497	0.0000000E+000	0.0000000E+000	0.0000000E+000	-21.503	0.0000000E+000	0.0000000E+000	0.0000000E+000	21.503	2.53826	68.497	-9.55174e-06	-0.000369246	-5.5951e-10	-0.000369246	3.88403	40855.5	0.0619073	40855.4
158486	0.884894	0.446668	0.991236	-26.7833	5.24356	3.884	-0.101669	2.24825	0.45652	1	9	0.00508618	0.00513115	0	-0.000160357	-3.23027e-05	5.89081e-05	78.5373	0.0114805	0.00228151	-0.0112515	-26.1413	0.988265	0.887175	0.435416	0.90061	0.454601	1.00884	26.7833	456.52	904.411	1013.1	-63.2167	0.0000000E+000	0.0000000E+000	0.0000000E+000	63.2167	0.0000000E+000	0.0000000E+000	0.0000000E+000	-63.2167	0.0000000E+000	0.0000000E+000	0.0000000E+000	-26.7833	0.0000000E+000	0.0000000E+000	0.0000000E+000	26.7833	1.9811	63.2167	-1.87331e-05	-0.000394881	3.28418e-09	-0.000394884	3.88403	38202.6	0.317726	38202.9
100004	1.05681	0.560306	1.19616	-27.9319	6.00953	3.88397	-0.0983868	2.84039	0.623236	1	9	0.00535442	0.00447635	0	-0.0001901	8.22616e-05	4.12404e-05	58.6522	0.00921294	0.00479287	-0.00786808	-27.4916	1.19674	1.0616	0.552438	0.738619	0.391605	0.83601	27.9319	623.236	1175.5	1330.5	-62.0681	0.0000000E+000	0.0000000E+000	0.0000000E+000	62.0681	0.0000000E+000	0.0000000E+000	0.0000000E+000	-62.0681	0.0000000E+000	0.0000000E+000	0.0000000E+000	-27.9319	0.0000000E+000	0.0000000E+000	0.0000000E+000	27.9319	1.88613	62.0681	-2.26135e-05	-0.000382131	-8.09346e-09	-0.000382123	3.88388	39476.5	0.836105	39475.7
63093.8	1.27422	0.643581	1.42753	-26.7974	6.77752	3.88397	-0.0936133	3.91949	0.796652	1	9	0.00528994	0.00370567	0	-0.000218946	6.31676e-05	1.89289e-05	53.623	0.0051081	0.00302959	-0.00411269	-26.5953	1.42839	1.27725	0.639469	0.625282	0.315817	0.700512	26.7974	796.652	1577.28	1767.05	-63.2026	0.0000000E+000	0.0000000E+000	0.0000000E+000	63.2026	0.0000000E+000	0.0000000E+000	0.0000000E+000	-63.2026	0.0000000E+000	0.0000000E+000	0.0000000E+000	-26.7974	0.0000000E+000	0.0000000E+000	0.0000000E+000	26.7974	1.97989	63.2026	-1.10481e-05	-0.000363591	-5.91332e-09	-0.000363585	3.88391	41489.5	0.674772	41488.9
39814.1	1.51003	0.67457	1.65386	-24.0715	7.54355	3.88396	-0.095105	5.92593	0.985857	1	9	0.00523102	0.00316292	0	-0.000228124	-1.32087e-05	1.56232e-05	47.4606	0.00493948	0.00333957	-0.00363947	-23.9094	1.65543	1.51337	0.67093	0.552065	0.246621	0.604647	24.0715	985.857	2206.86	2417.05	-65.9285	0.0000000E+000	0.0000000E+000	0.0000000E+000	65.9285	0.0000000E+000	0.0000000E+000	0.0000000E+000	-65.9285	0.0000000E+000	0.0000000E+000	0.0000000E+000	-24.0715	0.0000000E+000	0.0000000E+000	0.0000000E+000	24.0715	2.23851	65.9285	-3.8434e-06	-0.000369384	1.25621e-09	-0.000369386	3.88398	40838.7	0.138885	40838.8
25116.9	1.74232	0.665134	1.86496	-20.8944	8.30953	3.88396	-0.0872733	9.52675	1.21178	1	9	0.00520286	0.00278979	0	-0.000253899	0.00021592	5.92311e-06	7.77468	0.00212314	0.00210362	-0.000287213	-20.8632	1.86683	1.74443	0.664847	0.500942	0.191236	0.536204	20.8944	1211.78	3174.25	3397.69	-69.1056	0.0000000E+000	0.0000000E+000	0.0000000E+000	69.1056	0.0000000E+000	0.0000000E+000	0.0000000E+000	-69.1056	0.0000000E+000	0.0000000E+000	0.0000000E+000	-20.8944	0.0000000E+000	0.0000000E+000	0.0000000E+000	20.8944	2.6195	69.1056	-1.05334e-05	-0.000338966	-1.88441e-08	-0.000338947	3.88375	44503.4	2.47407	44500.9
15847.7	1.92894	0.651236	2.03591	-18.6554	9.07753	3.88397	-0.0825371	15.4211	1.57789	1	9	0.00513239	0.00252093	0	-0.000265577	4.40735e-05	1.31082e-05	0.921813	0.00519973	0.00519906	-8.36531e-05	-18.6065	2.04081	1.93414	0.651153	0.465375	0.157117	0.491182	18.6554	1577.89	4673.66	4932.83	-71.3446	0.0000000E+000	0.0000000E+000	0.0000000E+000	71.3446	0.0000000E+000	0.0000000E+000	0.0000000E+000	-71.3446	0.0000000E+000	0.0000000E+000	0.0000000E+000	-18.6554	0.0000000E+000	0.0000000E+000	0.0000000E+000	18.6554	2.96197	71.3446	-6.30143e-06	-0.000320571	-3.6377e-09	-0.000320568	3.88392	47057.2	0.533984	47056.7
10002.2	2.10466	0.625465	2.19563	-16.5509	9.84552	3.88396	-0.0814183	25.4402	2.06446	1	9	0.00513418	0.00233836	0	-0.000286557	-0.000127773	7.49506e-06	47.3035	0.00320526	0.00217354	-0.00235573	-16.4759	2.19705	2.10683	0.623109	0.436579	0.129743	0.455449	16.5509	2064.46	6946.82	7247.09	-73.4491	0.0000000E+000	0.0000000E+000	0.0000000E+000	73.4491	0.0000000E+000	0.0000000E+000	0.0000000E+000	-73.4491	0.0000000E+000	0.0000000E+000	0.0000000E+000	-16.5509	0.0000000E+000	0.0000000E+000	0.0000000E+000	16.5509	3.36495	73.4491	-6.4526e-06	-0.000316225	1.04031e-08	-0.000316236	3.88409	47703.8	1.56934	47705.4
6309.38	2.25893	0.649863	2.35055	-16.0498	10.6116	3.88396	-0.0927182	38.8161	2.96699	1	9	0.00504863	0.00214785	0	-0.00030587	-8.95849e-05	1.27961e-05	-75.9901	0.00595765	0.00144228	0.00578044	-16.1753	2.35354	2.26037	0.655643	0.40885	0.11762	0.425432	16.0498	2966.98	10313.3	10731.6	-73.9502	0.0000000E+000	0.0000000E+000	0.0000000E+000	73.9502	0.0000000E+000	0.0000000E+000	0.0000000E+000	-73.9502	0.0000000E+000	0.0000000E+000	0.0000000E+000	-16.0498	0.0000000E+000	0.0000000E+000	0.0000000E+000	16.0498	3.47601	73.9502	-1.23758e-05	-0.000360114	8.30616e-09	-0.000360122	3.88405	41890	0.966206	41890.9
3983.6	2.41741	0.688323	2.51349	-15.8936	11.1741	3.88392	-0.0738477	58.0433	4.35293	1	9	0.00545683	0.00217102	0	-0.000317991	-8.95849e-05	7.7207e-06	34.2223	0.00355626	0.00294054	-0.00200006	-15.8314	2.51577	2.42035	0.686323	0.382644	0.108953	0.397853	15.8936	4352.93	15287.6	15895.2	-74.1064	0.0000000E+000	0.0000000E+000	0.0000000E+000	74.1064	0.0000000E+000	0.0000000E+000	0.0000000E+000	-74.1064	0.0000000E+000	0.0000000E+000	0.0000000E+000	-15.8936	0.0000000E+000	0.0000000E+000	0.0000000E+000	15.8936	3.51202	74.1064	-4.1449e-06	-0.000286818	6.61564e-09	-0.000286825	3.88401	52593.7	1.2131	52594.9
2510.8	2.59511	0.772174	2.70755	-16.5704	12.2128	3.88391	-0.0826117	82.0903	6.67682	1	9	0.00501871	0.0018536	0	-0.000342005	2.49795e-05	6.65052e-06	-121.053	0.0035879	-0.00185076	0.00307371	-16.6439	2.70666	2.59326	0.775248	0.353999	0.105332	0.369337	16.5704	6676.82	22439.3	23411.6	-73.4296	0.0000000E+000	0.0000000E+000	0.0000000E+000	73.4296	0.0000000E+000	0.0000000E+000	0.0000000E+000	-73.4296	0.0000000E+000	0.0000000E+000	0.0000000E+000	-16.5704	0.0000000E+000	0.0000000E+000	0.0000000E+000	16.5704	3.36078	73.4296	-1.43195e-05	-0.000320856	-2.06359e-09	-0.000320854	3.88389	47014.1	0.302372	47013.8
1585.51	2.80688	0.883197	2.94255	-17.4664	13.1148	3.88391	-0.0763837	113.656	10.2391	1	9	0.00499686	0.00169814	0	-0.000360716	2.49795e-05	8.63505e-06	22.2804	0.00508501	0.00470536	-0.00192793	-17.4032	2.94646	2.81158	0.881269	0.324172	0.102002	0.339841	17.4664	10239.1	32540.7	34113.6	-72.5336	0.0000000E+000	0.0000000E+000	0.0000000E+000	72.5336	0.0000000E+000	0.0000000E+000	0.0000000E+000	-72.5336	0.0000000E+000	0.0000000E+000	0.0000000E+000	-17.4664	0.0000000E+000	0.0000000E+000	0.0000000E+000	17.4664	3.17809	72.5336	-8.77589e-06	-0.000296667	-1.90802e-09	-0.000296665	3.88389	50847.4	0.327026	50847.1
1000.32	3.06282	1.02708	3.23045	-18.5383	14.2628	3.88393	-0.113362	154.909	15.6589	1	10	0.00500362	0.00154889	0	-0.000386659	-0.000108679	5.17422e-06	-117.095	0.00334059	-0.00152155	0.00297396	-18.5968	3.22995	3.0613	1.03005	0.293492	0.0984191	0.309555	18.5383	15658.9	46695.8	49251.4	-71.4617	0.0000000E+000	0.0000000E+000	0.0000000E+000	71.4617	0.0000000E+000	0.0000000E+000	0.0000000E+000	-71.4617	0.0000000E+000	0.0000000E+000	0.0000000E+000	-18.5383	0.0000000E+000	0.0000000E+000	0.0000000E+000	18.5383	2.98207	71.4617	-1.57317e-05	-0.000440292	1.23201e-08	-0.000440304	3.88404	34261.2	0.958687	34262.2
631.01	3.40627	1.18233	3.60563	-19.1421	15.1645	3.88391	-0.112337	213.327	22.9383	1	10	0.00495063	0.00137303	0	-0.000414631	-0.000146867	9.71506e-06	6.13397	0.00707565	0.00703514	-0.000756058	-19.0942	3.61203	3.4133	1.18158	0.262009	0.0909446	0.277344	19.1421	22938.3	66084.7	69952.5	-70.8579	0.0000000E+000	0.0000000E+000	0.0000000E+000	70.8579	0.0000000E+000	0.0000000E+000	0.0000000E+000	-70.8579	0.0000000E+000	0.0000000E+000	0.0000000E+000	-19.1421	0.0000000E+000	0.0000000E+000	0.0000000E+000	19.1421	2.88098	70.8579	-1.46769e-05	-0.000436307	1.64986e-08	-0.000436323	3.88406	34573.8	1.30738	34575.1
398.089	3.83667	1.31544	4.05592	-18.9248	16.0659	3.88392	-0.109895	303.927	31.9693	1	10	0.00491017	0.00121062	0	-0.000442071	-0.000185055	1.26651e-05	65.1867	0.0104617	0.00439036	-0.00949585	-18.7778	4.057	3.84106	1.30594	0.233226	0.0799638	0.246553	18.9248	31969.3	93243.1	98571.4	-71.0752	0.0000000E+000	0.0000000E+000	0.0000000E+000	71.0752	0.0000000E+000	0.0000000E+000	0.0000000E+000	-71.0752	0.0000000E+000	0.0000000E+000	0.0000000E+000	-18.9248	0.0000000E+000	0.0000000E+000	0.0000000E+000	18.9248	2.91665	71.0752	-1.29648e-05	-0.000426822	2.03366e-08	-0.000426842	3.88411	35342.3	1.68394	35344
251.044	4.33917	1.33937	4.54118	-17.1539	16.964	3.88392	-0.108082	473.335	41.175	1	10	0.0048865	0.00107604	0	-0.000467843	5.88539e-06	6.04457e-06	-102.69	0.00561741	-0.001234	0.0054802	-17.2246	4.54162	4.33793	1.34485	0.210411	0.0649477	0.220207	17.1539	41175	133395	139605	-72.8461	0.0000000E+000	0.0000000E+000	0.0000000E+000	72.8461	0.0000000E+000	0.0000000E+000	0.0000000E+000	-72.8461	0.0000000E+000	0.0000000E+000	0.0000000E+000	-17.1539	0.0000000E+000	0.0000000E+000	0.0000000E+000	17.1539	3.2397	72.8461	-1.24345e-05	-0.000419783	-6.36106e-10	-0.000419783	3.88392	35934.9	0.0544528	35934.8
158.428	4.83239	1.25924	4.99376	-14.6055	17.8689	3.88392	-0.108209	797.772	50.727	1	10	0.00486982	0.000975179	0	-0.000492599	-0.000108679	9.05873e-06	-13.5774	0.0092893	0.0090297	0.00218074	-14.6036	5.00305	4.84142	1.26142	0.193779	0.0504954	0.20025	14.6055	50727	194667	201168	-75.3945	0.0000000E+000	0.0000000E+000	0.0000000E+000	75.3945	0.0000000E+000	0.0000000E+000	0.0000000E+000	-75.3945	0.0000000E+000	0.0000000E+000	0.0000000E+000	-14.6055	0.0000000E+000	0.0000000E+000	0.0000000E+000	14.6055	3.83755	75.3945	-1.26927e-05	-0.000420276	1.17601e-08	-0.000420287	3.88403	35892.8	1.00434	35893.8
100.032	5.24281	1.0893	5.35477	-11.7374	18.7668	3.88391	-0.107016	1460.61	60.4432	1	10	0.00485918	0.000907448	0	-0.000519315	2.49795e-05	5.15634e-06	-30.6633	0.00568224	0.00488774	0.00289789	-11.7571	5.36015	5.24769	1.0922	0.182844	0.0379897	0.186749	11.7374	60443.1	290913	297126	-78.2626	0.0000000E+000	0.0000000E+000	0.0000000E+000	78.2626	0.0000000E+000	0.0000000E+000	0.0000000E+000	-78.2626	0.0000000E+000	0.0000000E+000	0.0000000E+000	-11.7374	0.0000000E+000	0.0000000E+000	0.0000000E+000	11.7374	4.813	78.2626	-1.39454e-05	-0.00041564	-2.6732e-09	-0.000415638	3.88389	36292.9	0.233418	36292.7
63.0823	5.55424	0.85984	5.6204	-8.79999	19.6829	3.88392	-0.10432	2934.23	68.6746	1	10	0.00486466	0.000865537	0	-0.000544982	-8.95849e-05	5.36374e-06	69.2846	0.00619701	0.00219205	-0.00579636	-8.73819	5.62168	5.55643	0.854044	0.175829	0.0272197	0.177923	8.79999	68674.6	443612	448896	-81.2	0.0000000E+000	0.0000000E+000	0.0000000E+000	81.2	0.0000000E+000	0.0000000E+000	0.0000000E+000	-81.2	0.0000000E+000	0.0000000E+000	0.0000000E+000	-8.79999	0.0000000E+000	0.0000000E+000	0.0000000E+000	8.79999	6.45961	81.2	-1.37036e-05	-0.00040517	9.34549e-09	-0.00040518	3.88401	37230.9	0.858753	37231.8
39.8089	5.74361	0.645075	5.77973	-6.40813	20.5839	3.88392	-0.104189	6197.68	77.2033	1	10	0.00483952	0.000837327	0	-0.000571008	0.000177732	3.45034e-05	10.6984	0.0412066	0.0404903	-0.00764955	-6.28879	5.81912	5.7841	0.637426	0.171938	0.0193106	0.173019	6.40813	77203.3	687402	691724	-83.5919	0.0000000E+000	0.0000000E+000	0.0000000E+000	83.5919	0.0000000E+000	0.0000000E+000	0.0000000E+000	-83.5919	0.0000000E+000	0.0000000E+000	0.0000000E+000	-6.40813	0.0000000E+000	0.0000000E+000	0.0000000E+000	6.40813	8.90379	83.5919	-1.2772e-05	-0.000404663	-1.85178e-08	-0.000404645	3.88374	37277.5	1.70586	37275.8
25.1044	5.87608	0.481144	5.89574	-4.68104	21.4631	3.88392	-0.104491	13176.3	87.7541	1	10	0.00485048	0.000822709	0	-0.00059532	-5.13968e-05	7.2548e-06	-0.301471	0.00881818	0.00881806	4.63981e-05	-4.67451	5.90453	5.88489	0.48119	0.169048	0.013842	0.169614	4.68104	87754.1	1.07172e+06	1.0753e+06	-85.319	0.0000000E+000	0.0000000E+000	0.0000000E+000	85.319	0.0000000E+000	0.0000000E+000	0.0000000E+000	-85.319	0.0000000E+000	0.0000000E+000	0.0000000E+000	-4.68104	0.0000000E+000	0.0000000E+000	0.0000000E+000	4.68104	12.2127	85.319	-1.34956e-05	-0.000405836	5.37052e-09	-0.000405841	3.88397	37169.8	0.491876	37170.3
15.8576	5.95009	0.347732	5.96025	-3.34464	22.3411	3.8839	-0.106729	28862.8	98.2426	1	10	0.00484847	0.000813468	0	-0.00061848	-8.95849e-05	1.07378e-05	-14.7229	0.0132	0.0127666	0.00335471	-3.36962	5.97319	5.96286	0.351087	0.167493	0.00978851	0.167778	3.34464	98242.5	1.68104e+06	1.68391e+06	-86.6554	0.0000000E+000	0.0000000E+000	0.0000000E+000	86.6554	0.0000000E+000	0.0000000E+000	0.0000000E+000	-86.6554	0.0000000E+000	0.0000000E+000	0.0000000E+000	-3.34464	0.0000000E+000	0.0000000E+000	0.0000000E+000	3.34464	17.1111	86.6554	-1.0595e-05	-0.000414524	9.56128e-09	-0.000414533	3.88399	36390.4	0.839371	36391.2
10.0032	6.00638	0.272277	6.01255	-2.59552	23.3228	3.88392	-0.101568	58434.6	119.833	1	10	0.00485468	0.000807425	0	-0.000647112	-0.000165961	5.36542e-06	-34.0781	0.0066451	0.00550397	0.0037234	-2.62855	6.01821	6.01188	0.276	0.166148	0.00753172	0.166319	2.59552	119833	2.64349e+06	2.6462e+06	-87.4045	0.0000000E+000	0.0000000E+000	0.0000000E+000	87.4045	0.0000000E+000	0.0000000E+000	0.0000000E+000	-87.4045	0.0000000E+000	0.0000000E+000	0.0000000E+000	-2.59552	0.0000000E+000	0.0000000E+000	0.0000000E+000	2.59552	22.0598	87.4045	-1.88295e-05	-0.000394481	1.68563e-08	-0.000394498	3.88408	38239.6	1.63399	38241.2
6.31058	6.03617	0.220225	6.04018	-2.08946	24.2473	3.8839	-0.106997	114521	152.236	1	10	0.00484609	0.000802308	0	-0.00067202	0.000235014	8.1653e-06	107.565	0.0101773	-0.00307132	-0.00970277	-1.9985	6.03677	6.03309	0.210522	0.165448	0.00603624	0.165558	2.08946	152236	4.17265e+06	4.17543e+06	-87.9105	0.0000000E+000	0.0000000E+000	0.0000000E+000	87.9105	0.0000000E+000	0.0000000E+000	0.0000000E+000	-87.9105	0.0000000E+000	0.0000000E+000	0.0000000E+000	-2.08946	0.0000000E+000	0.0000000E+000	0.0000000E+000	2.08946	27.4091	87.9105	-1.76668e-05	-0.000415566	-2.51459e-08	-0.000415541	3.88367	36299.1	2.19645	36296.9
3.97785	6.07602	0.193103	6.07909	-1.82031	25.2544	3.88394	-0.0965768	207197	209.066	1	10	0.00485138	0.000798043	0	-0.000690968	-0.000242337	2.08089e-06	141.968	0.0026075	-0.00205384	-0.00160648	-1.80579	6.07699	6.07397	0.191496	0.164415	0.0052253	0.164498	1.82031	209066	6.5783e+06	6.58162e+06	-88.1797	0.0000000E+000	0.0000000E+000	0.0000000E+000	88.1797	0.0000000E+000	0.0000000E+000	0.0000000E+000	-88.1797	0.0000000E+000	0.0000000E+000	0.0000000E+000	-1.82031	0.0000000E+000	0.0000000E+000	0.0000000E+000	1.82031	31.4652	88.1797	-5.12521e-06	-0.000375099	2.34042e-08	-0.000375122	3.88418	40216.1	2.50927	40218.6
2.51367	6.1047	0.201644	6.10803	-1.89184	27.2559	3.88395	-0.0925825	313998	342.211	1	11	0.00485165	0.000794307	0	-0.000749067	-8.95849e-05	2.51151e-06	67.7501	0.00316189	0.00119724	-0.00292646	-1.86404	6.10913	6.10589	0.198717	0.16363	0.00540484	0.163719	1.89184	342211	1.03603e+07	1.0366e+07	-88.1082	0.0000000E+000	0.0000000E+000	0.0000000E+000	88.1082	0.0000000E+000	0.0000000E+000	0.0000000E+000	-88.1082	0.0000000E+000	0.0000000E+000	0.0000000E+000	-1.89184	0.0000000E+000	0.0000000E+000	0.0000000E+000	1.89184	30.2747	88.1082	-4.39859e-05	-0.000359586	8.294e-09	-0.000359594	3.88404	41951.2	0.967623	41952.2
1.58469	6.14923	0.222415	6.15325	-2.07146	29.6915	3.88395	-0.0920498	451557	589.974	1	11	0.00485395	0.000788844	0	-0.000811665	-7.04909e-05	4.07268e-06	-18.8727	0.00516285	0.00488529	0.00167001	-2.08535	6.15819	6.15411	0.224085	0.16241	0.00587429	0.162516	2.07146	589974	1.63113e+07	1.6322e+07	-87.9285	0.0000000E+000	0.0000000E+000	0.0000000E+000	87.9285	0.0000000E+000	0.0000000E+000	0.0000000E+000	-87.9285	0.0000000E+000	0.0000000E+000	0.0000000E+000	-2.07146	0.0000000E+000	0.0000000E+000	0.0000000E+000	2.07146	27.6475	87.9285	-2.70663e-05	-0.000357517	6.48867e-09	-0.000357523	3.88402	42194	0.765791	42194.8
1.00469	6.19739	0.255779	6.20266	-2.36338	240.509	3.88393	-0.063611	619328	1053.16	1	11	0.00503768	0.000812181	0	-0.00830737	-0.000223243	6.76201e-07	2.4815	0.000832575	0.000831794	-3.60478e-05	-2.36273	6.20349	6.19822	0.255743	0.161084	0.00664828	0.161221	2.36338	1.05316e+06	2.55175e+07	2.55393e+07	-87.6366	0.0000000E+000	0.0000000E+000	0.0000000E+000	87.6366	0.0000000E+000	0.0000000E+000	0.0000000E+000	-87.6366	0.0000000E+000	0.0000000E+000	0.0000000E+000	-2.36338	0.0000000E+000	0.0000000E+000	0.0000000E+000	2.36338	24.2294	87.6366	-0.00747348	-0.000247061	1.42007e-08	-0.000247075	3.88416	61057.5	3.50951	61061.1
0.632957	6.26209	0.31282	6.2699	-2.8598	240.51	3.88393	-0.063611	803807	2000.87	1	11	0.00505091	0.000805581	0	-0.00830737	-0.000223243	7.98912e-07	-19.1941	0.000991722	0.000936592	0.000326049	-2.86235	6.27085	6.26303	0.313146	0.159294	0.00795743	0.159492	2.8598	2.00087e+06	4.00538e+07	4.01038e+07	-87.1402	0.0000000E+000	0.0000000E+000	0.0000000E+000	87.1402	0.0000000E+000	0.0000000E+000	0.0000000E+000	-87.1402	0.0000000E+000	0.0000000E+000	0.0000000E+000	-2.8598	0.0000000E+000	0.0000000E+000	0.0000000E+000	2.8598	20.0182	87.1402	0.000000000000000E+000	-0.000247061	1.42007e-08	-0.000247075	3.88416	61057.5	3.50951	61061.1
0.401878	6.31858	0.388386	6.3305	-3.51739	240.511	3.88393	-0.063611	1.01968e+06	3838.07	1	11	0.00506555	0.000800182	0	-0.00830737	-0.000223243	7.55187e-07	7.67632	0.000943769	0.000935312	-0.000126065	-3.51573	6.33143	6.31951	0.38826	0.157668	0.00969141	0.157965	3.51739	3.83807e+06	6.24409e+07	6.25588e+07	-86.4826	0.0000000E+000	0.0000000E+000	0.0000000E+000	86.4826	0.0000000E+000	0.0000000E+000	0.0000000E+000	-86.4826	0.0000000E+000	0.0000000E+000	0.0000000E+000	-3.51739	0.0000000E+000	0.0000000E+000	0.0000000E+000	3.51739	16.2688	86.4826	0.000000000000000E+000	-0.000247061	1.42007e-08	-0.000247075	3.88416	61057.5	3.50951	61061.1
0.251173	6.41869	0.508021	6.43876	-4.52536	240.512	3.88393	-0.063611	1.24728e+06	7764.67	1	11	0.00506689	0.000786935	0	-0.00830737	-0.000223243	7.07775e-07	5.05411	0.000899407	0.00089591	-7.92347e-05	-4.52403	6.43965	6.41958	0.507941	0.154825	0.012254	0.155309	4.52536	7.76467e+06	9.81043e+07	9.84111e+07	-85.4746	0.0000000E+000	0.0000000E+000	0.0000000E+000	85.4746	0.0000000E+000	0.0000000E+000	0.0000000E+000	-85.4746	0.0000000E+000	0.0000000E+000	0.0000000E+000	-4.52536	0.0000000E+000	0.0000000E+000	0.0000000E+000	4.52536	12.6347	85.4746	0.000000000000000E+000	-0.000247061	1.42007e-08	-0.000247075	3.88416	61057.5	3.50951	61061.1
0.160751	6.54799	0.581493	6.57376	-5.07483	240.513	3.88393	-0.063611	1.70264e+06	13322.4	1	11	0.00505829	0.000769467	0	-0.00830737	-0.000223243	7.36862e-07	24.0257	0.000957626	0.00087466	-0.000389895	-5.07078	6.57459	6.54886	0.581103	0.151524	0.0134561	0.15212	5.07483	1.33225e+07	1.50019e+08	1.5061e+08	-84.9252	0.0000000E+000	0.0000000E+000	0.0000000E+000	84.9252	0.0000000E+000	0.0000000E+000	0.0000000E+000	-84.9252	0.0000000E+000	0.0000000E+000	0.0000000E+000	-5.07483	0.0000000E+000	0.0000000E+000	0.0000000E+000	5.07483	11.2606	84.9252	0.000000000000000E+000	-0.000247061	1.42007e-08	-0.000247075	3.88416	61057.5	3.50951	61061.1
0.100469	6.65883	0.830937	6.71047	-7.11302	240.514	3.88393	-0.063611	1.90642e+06	29231.3	1	11	0.00506275	0.000754455	0	-0.00830737	-0.000223243	9.99477e-07	-28.1131	0.00132477	0.00116847	0.000624249	-7.11707	6.71171	6.66	0.831561	0.147874	0.0184528	0.149021	7.11302	2.92313e+07	2.34249e+08	2.36066e+08	-82.887	0.0000000E+000	0.0000000E+000	0.0000000E+000	82.887	0.0000000E+000	0.0000000E+000	0.0000000E+000	-82.887	0.0000000E+000	0.0000000E+000	0.0000000E+000	-7.11302	0.0000000E+000	0.0000000E+000	0.0000000E+000	7.11302	8.01364	82.887	0.000000000000000E+000	-0.000247061	1.42007e-08	-0.000247075	3.88416	61057.5	3.50951	61061.1
0.0602816	6.9014	1.04944	6.98073	-8.64629	240.515	3.88393	-0.063611	2.5158e+06	56858	1	11	0.00505889	0.000724692	0	-0.00830737	-0.000223243	3.49237e-07	1.40963	0.00048191	0.000481764	-1.18551e-05	-8.6456	6.98121	6.90188	1.04943	0.141623	0.0215356	0.143251	8.64629	5.6858e+07	3.73913e+08	3.78211e+08	-81.3537	0.0000000E+000	0.0000000E+000	0.0000000E+000	81.3537	0.0000000E+000	0.0000000E+000	0.0000000E+000	-81.3537	0.0000000E+000	0.0000000E+000	0.0000000E+000	-8.64629	0.0000000E+000	0.0000000E+000	0.0000000E+000	8.64629	6.57625	81.3537	0.000000000000000E+000	-0.000247061	1.42007e-08	-0.000247075	3.88416	61057.5	3.50951	61061.1
0.0401878	7.20323	1.29971	7.31954	-10.2281	240.516	3.88393	-0.063611	3.04705e+06	96073.7	1	11	0.00506173	0.000691536	0	-0.00830737	-0.000223243	5.01916e-07	-8.19725	0.000725798	0.000718383	0.000103485	-10.2279	7.32027	7.20395	1.29981	0.134449	0.0242593	0.136621	10.2281	9.60737e+07	5.32458e+08	5.41056e+08	-79.7719	0.0000000E+000	0.0000000E+000	0.0000000E+000	79.7719	0.0000000E+000	0.0000000E+000	0.0000000E+000	-79.7719	0.0000000E+000	0.0000000E+000	0.0000000E+000	-10.2281	0.0000000E+000	0.0000000E+000	0.0000000E+000	10.2281	5.54218	79.7719	0.000000000000000E+000	-0.000247061	1.42007e-08	-0.000247075	3.88416	61057.5	3.50951	61061.1
0.0200939	7.98131	2.04282	8.2386	-14.3567	240.518	3.88393	-0.063611	3.87727e+06	238386	1	11	0.00505952	0.000614124	0	-0.00830737	-0.000223243	8.23687e-07	-4.17476	0.00134124	0.00133768	9.76406e-05	-14.355	8.23992	7.98265	2.04292	0.117589	0.030097	0.12138	14.3567	2.38386e+08	9.31374e+08	9.61398e+08	-75.6433	0.0000000E+000	0.0000000E+000	0.0000000E+000	75.6433	0.0000000E+000	0.0000000E+000	0.0000000E+000	-75.6433	0.0000000E+000	0.0000000E+000	0.0000000E+000	-14.3567	0.0000000E+000	0.0000000E+000	0.0000000E+000	14.3567	3.90701	75.6433	0.000000000000000E+000	-0.000247061	1.42007e-08	-0.000247075	3.88416	61057.5	3.50951	61061.1
0.00796479	8.83012	2.34863	9.13713	-14.8946	20329.4	3.88393	0.0020479	8.50808e+06	562135	1	11	0.00505347	0.000553069	0	-0.0612844	-0.000452372	3.87236e-07	-2.00269	0.000700158	0.00069973	2.4468e-05	-14.8937	9.13781	8.83082	2.34865	0.105766	0.0281316	0.109444	14.8946	5.62135e+08	2.11346e+09	2.18694e+09	-75.1054	0.0000000E+000	0.0000000E+000	0.0000000E+000	75.1054	0.0000000E+000	0.0000000E+000	0.0000000E+000	-75.1054	0.0000000E+000	0.0000000E+000	0.0000000E+000	-14.8946	0.0000000E+000	0.0000000E+000	0.0000000E+000	14.8946	3.75969	75.1054	-0.052977	7.95389e-06	-9.26411e-10	7.95481e-06	3.88439	1.89655e+06	220.896	1.89677e+06
0.00497799	9.55226	2.37537	9.84317	-13.9646	20329.4	3.88393	0.0020479	1.34597e+07	783840	1	11	0.00506146	0.000514211	0	-0.0612844	-0.000452372	7.42966e-07	-136.799	0.00144487	-0.00105325	0.000989091	-13.9716	9.84239	9.55121	2.37636	0.0985907	0.0245167	0.101593	13.9646	7.8384e+08	3.15211e+09	3.24811e+09	-76.0354	0.0000000E+000	0.0000000E+000	0.0000000E+000	76.0354	0.0000000E+000	0.0000000E+000	0.0000000E+000	-76.0354	0.0000000E+000	0.0000000E+000	0.0000000E+000	-13.9646	0.0000000E+000	0.0000000E+000	0.0000000E+000	13.9646	4.02137	76.0354	0.000000000000000E+000	7.95389e-06	-9.26411e-10	7.95481e-06	3.88439	1.89655e+06	220.896	1.89677e+06
0.00318591	10.0714	3.24465	10.5812	-17.8571	20329.4	3.88393	0.0020479	1.53964e+07	1.44772e+06	1	11	0.0050637	0.000478557	0	-0.0612844	-0.000452372	7.07826e-07	1.18909	0.00147908	0.00147877	-3.0694e-05	-17.8544	10.5826	10.0729	3.24462	0.0899544	0.02898	0.0945073	17.8571	1.44772e+09	4.49374e+09	4.72119e+09	-72.1429	0.0000000E+000	0.0000000E+000	0.0000000E+000	72.1429	0.0000000E+000	0.0000000E+000	0.0000000E+000	-72.1429	0.0000000E+000	0.0000000E+000	0.0000000E+000	-17.8571	0.0000000E+000	0.0000000E+000	0.0000000E+000	17.8571	3.10401	72.1429	0.000000000000000E+000	7.95389e-06	-9.26411e-10	7.95481e-06	3.88439	1.89655e+06	220.896	1.89677e+06
0.0019912	10.4164	3.93138	11.1336	-20.6777	20329.4	3.88393	0.0020479	2.03311e+07	2.53502e+06	1	11	0.00506443	0.000454879	0	-0.0612844	-0.000452372	3.02424e-07	-67.7069	0.000664846	0.000252206	0.000615152	-20.6802	11.134	10.4166	3.932	0.0840325	0.0317158	0.0898184	20.6777	2.53502e+09	6.71666e+09	7.17912e+09	-69.3223	0.0000000E+000	0.0000000E+000	0.0000000E+000	69.3223	0.0000000E+000	0.0000000E+000	0.0000000E+000	-69.3223	0.0000000E+000	0.0000000E+000	0.0000000E+000	-20.6777	0.0000000E+000	0.0000000E+000	0.0000000E+000	20.6777	2.64954	69.3223	0.000000000000000E+000	7.95389e-06	-9.26411e-10	7.95481e-06	3.88439	1.89655e+06	220.896	1.89677e+06
0.00129428	10.0494	5.16418	11.2986	-27.1977	20329.4	3.88393	0.0020479	2.38118e+07	4.97443e+06	1	11	0.00506544	0.000448324	0	-0.0612844	-0.000452372	7.90045e-07	-108.882	0.00176222	-0.000570296	0.00166739	-27.2066	11.2989	10.0488	5.16584	0.0787207	0.040453	0.0885064	27.1977	4.97443e+09	9.68013e+09	1.08835e+10	-62.8023	0.0000000E+000	0.0000000E+000	0.0000000E+000	62.8023	0.0000000E+000	0.0000000E+000	0.0000000E+000	-62.8023	0.0000000E+000	0.0000000E+000	0.0000000E+000	-27.1977	0.0000000E+000	0.0000000E+000	0.0000000E+000	27.1977	1.94598	62.8023	0.000000000000000E+000	7.95389e-06	-9.26411e-10	7.95481e-06	3.88439	1.89655e+06	220.896	1.89677e+06
0.000796479	11.2116	7.42733	13.4486	-33.5233	20329.4	3.88393	0.0020479	2.69038e+07	8.20589e+06	1	11	0.00506635	0.00037672	0	-0.0612844	-0.000452372	1.47646e-06	-114.865	0.00391926	-0.00164797	0.00355595	-33.5398	13.4492	11.2099	7.43089	0.0619888	0.0410658	0.0743573	33.5233	8.20589e+09	1.23868e+10	1.48583e+10	-56.4767	0.0000000E+000	0.0000000E+000	0.0000000E+000	56.4767	0.0000000E+000	0.0000000E+000	0.0000000E+000	-56.4767	0.0000000E+000	0.0000000E+000	0.0000000E+000	-33.5233	0.0000000E+000	0.0000000E+000	0.0000000E+000	33.5233	1.5095	56.4767	0.000000000000000E+000	7.95389e-06	-9.26411e-10	7.95481e-06	3.88439	1.89655e+06	220.896	1.89677e+06
0.000497799	10.9338	10.5693	15.2072	-44.029	20329.4	3.88393	0.0020479	3.02495e+07	1.46122e+07	1	11	0.00506803	0.000333266	0	-0.0612844	-0.000452372	5.43274e-07	-6.48181	0.00163015	0.00161973	0.000184024	-44.0253	15.2085	10.9354	10.5695	0.0472795	0.0457036	0.0657585	44.029	1.46122e+10	1.51161e+10	2.10241e+10	-45.971	0.0000000E+000	0.0000000E+000	0.0000000E+000	45.971	0.0000000E+000	0.0000000E+000	0.0000000E+000	-45.971	0.0000000E+000	0.0000000E+000	0.0000000E+000	-44.029	0.0000000E+000	0.0000000E+000	0.0000000E+000	44.029	1.03448	45.971	0.000000000000000E+000	7.95389e-06	-9.26411e-10	7.95481e-06	3.88439	1.89655e+06	220.896	1.89677e+06
0.000298679	10.22	16.4063	19.3291	-58.08	20329.4	3.88393	0.0020479	3.24791e+07	2.33993e+07	1	11	0.00506713	0.00026215	0	-0.0612844	-0.000452372	1.99015e-06	-106.916	0.00759164	-0.00220898	0.00726315	-58.097	19.3341	10.2177	16.4135	0.0273543	0.0439124	0.0517355	58.08	2.33993e+10	1.45761e+10	2.75679e+10	-31.92	0.0000000E+000	0.0000000E+000	0.0000000E+000	31.92	0.0000000E+000	0.0000000E+000	0.0000000E+000	-31.92	0.0000000E+000	0.0000000E+000	0.0000000E+000	-58.08	0.0000000E+000	0.0000000E+000	0.0000000E+000	58.08	0.622929	31.92	0.000000000000000E+000	7.95389e-06	-9.26411e-10	7.95481e-06	3.88439	1.89655e+06	220.896	1.89677e+06
9.95598e-05	8.54933	73.3211	73.8178	-83.3493	20329.4	3.88393	0.0020479	2.18025e+07	2.15101e+07	1	11	0.00507013	6.86843e-05	0	-0.0612844	-0.000452372	1.53555e-06	82.1799	0.0223566	0.0030419	-0.0221487	-83.3449	73.7962	8.55237	73.299	0.00156895	0.0134557	0.0135469	83.3493	2.15101e+10	2.5081e+09	2.16558e+10	-6.65073	0.0000000E+000	0.0000000E+000	0.0000000E+000	6.65073	0.0000000E+000	0.0000000E+000	0.0000000E+000	-6.65073	0.0000000E+000	0.0000000E+000	0.0000000E+000	-83.3493	0.0000000E+000	0.0000000E+000	0.0000000E+000	83.3493	0.116601	6.65073	0.000000000000000E+000	7.95389e-06	-9.26411e-10	7.95481e-06	3.88439	1.89655e+06	220.896	1.89677e+06