File: txt/19745_R319_UC100_SOC50_C01.mpt
EC-Lab ASCII FILE
Nb header lines : 65

Potentio Electrochemical Impedance Spectroscopy

Run on channel : 1 (SN 66354)
User :
CE vs. WE compliance from -10 V to 10 V
Electrode connection : standard
Potential control : Ewe
Ewe ctrl range : min = -10.00 V, max = 10.00 V
Safety Limits :
	Do not start on E overload
Acquisition started on : 12/15/2025 16:10:14.448
Technique started on : 12/15/2025 16:10:17.143
Loaded Setting File :  C:\Users\Celltest\OneDrive - store-dot.com\Documents\EC-Lab\Data\@Biologic Test Protocols\cathode half cell EIS SOC50.mps
Saved on :
	File : 19745_R319_UC100_SOC50_C01.mpr
	Directory : C:\Users\Celltest\OneDrive - store-dot.com\Documents\EC-Lab\Data\Michael\
	Host : 169.254.61.224
Device : VMP-3e (SN .003165)
Address : USB
EC-LAB for windows v11.62 (software)
Internet server v27.00 (firmware)
Command interpretor v12.03 (firmware)
Electrode material :
Initial state :
Electrolyte :
Comments :
Electrode surface area : 0.001 cm²
Characteristic mass : 0.001 g
Equivalent Weight : 0.000 g/eq.
Density : 0.000 g/cm3
Volume (V) : 0.001 cm³
Record Ece
Cycle Definition : Charge/Discharge alternance
Mode                Multi sine
E (V)               0.0000
vs.                 Eoc
tE (h:m:s)          0:00:0.0000
record              0
dI                  0.000
unit dI             mA
dt (s)              0.000
fi                  1.000
unit fi             MHz
ff                  0.100
unit ff             mHz
Nd                  10
Points              per decade
spacing             Logarithmic
Va (mV)             5.0
pw                  0.10
Na                  2
corr                0
E range min (V)     -10.000
E range max (V)     10.000
I Range             Auto
Bandwidth           5
nc cycles           0
goto Ns'            0
nr cycles           0
inc. cycle          0

freq/Hz	Re(Z)/Ohm	-Im(Z)/Ohm	|Z|/Ohm	Phase(Z)/deg	time/s	<Ewe>/V	<I>/mA	Cs/µF	Cp/µF	cycle number	I Range	|Ewe|/V	|I|/A	Ns	(Q-Qo)/mA.h	<Ece>/V	|Ece|/V	Phase(Zce)/deg	|Zce|/Ohm	Re(Zce)/Ohm	-Im(Zce)/Ohm	Phase(Zwe-ce)/deg	|Zwe-ce|/Ohm	Re(Zwe-ce)/Ohm	-Im(Zwe-ce)/Ohm	Re(Y)/Ohm-1	Im(Y)/Ohm-1	|Y|/Ohm-1	Phase(Y)/deg	Re(C)/nF	Im(C)/nF	|C|/nF	Phase(C)/deg	Re(M)	Im(M)	|M|	Phase(M)/deg	Re(Permittivity)	Im(Permittivity)	|Permittivity|	Phase(Permittivity)/deg	Re(Resistivity)/Ohm.cm	Im(Resistivity)/Ohm.cm	|Resistivity|/Ohm.cm	Phase(Resistivity)/deg	Re(Conductivity)/mS/cm	Im(Conductivity)/mS/cm	|Conductivity|/mS/cm	Phase(Conductivity)/deg	Tan(Delta)	Loss Angle(Delta)/deg	dq/mA.h	Pwe/W	Pce/W	Pwe-ce/W	<Ewe-Ece>/V	Rwe/Ohm	Rce/Ohm	Rwe-ce/Ohm		Ewe-Ece/V
1.00002e+06	1.06214	-0.00825007	1.06217	0.44503	2.69455	3.88041	0.135117	-19.291	-0.0011638	1	9	0.000219699	0.000206839	0	5.24792e-05	0.000231029	0.00019225	-6.57051	0.929465	0.92336	0.106355	-2.82872	1.98792	1.9855	0.0981047	0.941437	-0.0073125	0.941465	-0.44503	-1.1638	149.832	149.836	-90.445	0.0000000E+000	0.0000000E+000	0.0000000E+000	90.445	0.0000000E+000	0.0000000E+000	0.0000000E+000	-90.445	0.0000000E+000	0.0000000E+000	0.0000000E+000	0.44503	0.0000000E+000	0.0000000E+000	0.0000000E+000	-0.44503	128.743	89.555	5.24792e-05	0.000524308	3.12159e-08	0.000524277	3.88018	28718.9	1.70984	28717.2
630957	0.342105	0.295953	0.452354	-40.8629	3.46056	3.8801	0.0790863	0.85231	0.364826	1	9	0.000155386	0.000343506	0	7.27653e-05	-9.32854e-05	0.000125595	-108.155	0.365628	-0.113928	0.347426	-70.4727	0.682643	0.228178	0.643379	1.67187	1.44632	2.21066	40.8629	364.826	421.719	557.624	-49.1371	0.0000000E+000	0.0000000E+000	0.0000000E+000	49.1371	0.0000000E+000	0.0000000E+000	0.0000000E+000	-49.1371	0.0000000E+000	0.0000000E+000	0.0000000E+000	-40.8629	0.0000000E+000	0.0000000E+000	0.0000000E+000	40.8629	1.15594	49.1371	9.37283e-06	0.000306863	-7.3776e-09	0.00030687	3.88019	49061.5	1.17954	49062.7
398103	0.53694	0.168862	0.562867	-17.4578	4.22655	3.88014	0.0908587	2.36752	0.213081	1	9	0.000545393	0.000968955	0	9.05424e-05	9.74876e-05	6.55296e-05	175.274	0.0676292	-0.0673992	-0.00557211	-19.1759	0.497124	0.469541	0.16329	1.69479	0.532991	1.77662	17.4578	213.081	677.546	710.262	-72.5422	0.0000000E+000	0.0000000E+000	0.0000000E+000	72.5422	0.0000000E+000	0.0000000E+000	0.0000000E+000	-72.5422	0.0000000E+000	0.0000000E+000	0.0000000E+000	-17.4578	0.0000000E+000	0.0000000E+000	0.0000000E+000	17.4578	3.17976	72.5422	9.08374e-06	0.000352545	8.8576e-09	0.000352536	3.88004	42705.2	1.07296	42704.1
251206	0.671196	0.30795	0.73847	-24.6461	4.99554	3.88007	0.0824393	2.05735	0.357771	1	9	0.00192265	0.00260356	0	0.00011374	0.000288261	6.10663e-05	116.608	0.0234549	-0.0105052	-0.0209708	-23.4783	0.720326	0.660691	0.28698	1.23079	0.564697	1.35415	24.6461	357.771	779.783	857.94	-65.3539	0.0000000E+000	0.0000000E+000	0.0000000E+000	65.3539	0.0000000E+000	0.0000000E+000	0.0000000E+000	-65.3539	0.0000000E+000	0.0000000E+000	0.0000000E+000	-24.6461	0.0000000E+000	0.0000000E+000	0.0000000E+000	24.6461	2.17956	65.3539	9.96613e-06	0.00031987	2.3764e-08	0.000319847	3.87978	47065.8	3.49664	47062.3
158486	0.790805	0.449908	0.90983	-29.6366	5.76356	3.88003	0.0811727	2.23206	0.545799	1	9	0.00508455	0.00558846	0	0.000115042	-3.60535e-05	5.69438e-05	98.429	0.0101895	-0.00149362	-0.0100795	-29.1279	0.903583	0.789312	0.439829	0.955321	0.543505	1.09911	29.6366	545.799	959.352	1103.74	-60.3634	0.0000000E+000	0.0000000E+000	0.0000000E+000	60.3634	0.0000000E+000	0.0000000E+000	0.0000000E+000	-60.3634	0.0000000E+000	0.0000000E+000	0.0000000E+000	-29.6366	0.0000000E+000	0.0000000E+000	0.0000000E+000	29.6366	1.7577	60.3634	-4.2467e-06	0.000314953	-2.92656e-09	0.000314956	3.88007	47799.7	0.444158	47800.2
100004	0.959025	0.586087	1.12393	-31.4303	6.52954	3.88003	0.0885863	2.71545	0.738389	1	9	0.00535178	0.00476165	0	0.000119074	9.74876e-05	5.52406e-05	97.2367	0.0116011	-0.00146138	-0.0115087	-30.9655	1.11672	0.957563	0.574579	0.759187	0.463961	0.889732	31.4303	738.389	1208.24	1416	-58.5697	0.0000000E+000	0.0000000E+000	0.0000000E+000	58.5697	0.0000000E+000	0.0000000E+000	0.0000000E+000	-58.5697	0.0000000E+000	0.0000000E+000	0.0000000E+000	-31.4303	0.0000000E+000	0.0000000E+000	0.0000000E+000	31.4303	1.63632	58.5697	1.23922e-05	0.000343717	8.63607e-09	0.000343709	3.87993	43799.4	1.10048	43798.3
63093.8	1.18673	0.699228	1.37741	-30.5068	7.29552	3.88004	0.0888098	3.60757	0.929667	1	9	0.00539719	0.00391837	0	0.00012758	-9.32854e-05	2.55898e-05	79.8631	0.00653074	0.00114942	-0.00642879	-30.2517	1.37515	1.18788	0.692799	0.6255	0.368548	0.726002	30.5068	929.667	1577.83	1831.35	-59.4932	0.0000000E+000	0.0000000E+000	0.0000000E+000	59.4932	0.0000000E+000	0.0000000E+000	0.0000000E+000	-59.4932	0.0000000E+000	0.0000000E+000	0.0000000E+000	-30.5068	0.0000000E+000	0.0000000E+000	0.0000000E+000	30.5068	1.6972	59.4932	3.09099e-06	0.000344585	-8.28466e-09	0.000344593	3.88013	43689.3	1.0504	43690.3
39814.1	1.46026	0.748288	1.64082	-27.1322	8.18553	3.88002	0.0911568	5.34214	1.11104	1	9	0.00502284	0.00306117	0	0.000143745	4.02557e-05	1.58897e-05	86.7278	0.00519072	0.000296281	-0.00518226	-26.9662	1.63873	1.46056	0.743105	0.542385	0.277937	0.609451	27.1322	1111.04	2168.16	2436.25	-62.8678	0.0000000E+000	0.0000000E+000	0.0000000E+000	62.8678	0.0000000E+000	0.0000000E+000	0.0000000E+000	-62.8678	0.0000000E+000	0.0000000E+000	0.0000000E+000	-27.1322	0.0000000E+000	0.0000000E+000	0.0000000E+000	27.1322	1.95147	62.8678	9.61698e-06	0.000353691	3.66958e-09	0.000353687	3.87998	42564.3	0.44161	42563.8
25116.9	1.72965	0.751848	1.88599	-23.4938	9.07756	3.88003	0.0875804	8.42799	1.33939	1	9	0.00505871	0.00268226	0	0.00017193	0.000173797	6.43495e-06	24.3282	0.00239908	0.00218604	-0.00098833	-23.4398	1.8876	1.73183	0.75086	0.486272	0.211374	0.530226	23.4938	1339.39	3081.3	3359.81	-66.5062	0.0000000E+000	0.0000000E+000	0.0000000E+000	66.5062	0.0000000E+000	0.0000000E+000	0.0000000E+000	-66.5062	0.0000000E+000	0.0000000E+000	0.0000000E+000	-23.4938	0.0000000E+000	0.0000000E+000	0.0000000E+000	23.4938	2.30053	66.5062	9.49263e-06	0.000339814	1.52212e-08	0.000339799	3.87986	44302.5	1.98443	44300.5
15847.7	1.96187	0.706837	2.08532	-19.8135	9.84556	3.88004	0.0917529	14.2081	1.63241	1	9	0.00487231	0.00233648	0	0.000190835	0.00015472	1.11674e-05	22.5182	0.00477958	0.00441517	-0.00183047	-19.7252	2.08885	1.96628	0.705006	0.451155	0.162546	0.479544	19.8135	1632.41	4530.86	4815.96	-70.1865	0.0000000E+000	0.0000000E+000	0.0000000E+000	70.1865	0.0000000E+000	0.0000000E+000	0.0000000E+000	-70.1865	0.0000000E+000	0.0000000E+000	0.0000000E+000	-19.8135	0.0000000E+000	0.0000000E+000	0.0000000E+000	19.8135	2.77556	70.1865	8.33694e-06	0.000356005	1.4196e-08	0.000355991	3.87989	42287.9	1.68626	42286.3
10002.2	2.15521	0.652783	2.2519	-16.8508	10.4876	3.88004	0.0845255	24.3756	2.0483	1	9	0.00476532	0.00211614	0	0.000205309	0.000250106	3.64304e-06	-12.7141	0.00172155	0.00167934	0.00037889	-16.8477	2.25362	2.15689	0.653162	0.425003	0.128727	0.44407	16.8508	2048.3	6762.62	7066.02	-73.1492	0.0000000E+000	0.0000000E+000	0.0000000E+000	73.1492	0.0000000E+000	0.0000000E+000	0.0000000E+000	-73.1492	0.0000000E+000	0.0000000E+000	0.0000000E+000	-16.8508	0.0000000E+000	0.0000000E+000	0.0000000E+000	16.8508	3.30157	73.1492	7.90047e-06	0.000327962	2.11403e-08	0.000327941	3.87979	45903.8	2.95894	45900.8
6309.38	2.31279	0.623874	2.39546	-15.0962	11.0055	3.88003	0.0816197	40.433	2.74255	1	9	0.00451692	0.00188562	0	0.000215048	0.000307338	6.0797e-06	-119.818	0.00322425	-0.00160324	0.00279739	-15.1708	2.39464	2.31119	0.626672	0.403051	0.108723	0.417457	15.0962	2742.55	10167	10530.4	-74.9038	0.0000000E+000	0.0000000E+000	0.0000000E+000	74.9038	0.0000000E+000	0.0000000E+000	0.0000000E+000	-74.9038	0.0000000E+000	0.0000000E+000	0.0000000E+000	-15.0962	0.0000000E+000	0.0000000E+000	0.0000000E+000	15.0962	3.70714	74.9038	4.46843e-06	0.000316687	2.50848e-08	0.000316662	3.87973	47538	3.76549	47534.2
3983.6	2.46665	0.63549	2.5472	-14.4471	11.6941	3.87981	-0.0158749	62.8688	3.91316	1	9	0.00481204	0.00188915	0	0.000226013	-0.000112363	5.42034e-06	58.3729	0.00286919	0.00150457	-0.00244306	-14.3855	2.54805	2.46816	0.633047	0.380174	0.0979452	0.392588	14.4471	3913.16	15188.9	15684.9	-75.5529	0.0000000E+000	0.0000000E+000	0.0000000E+000	75.5529	0.0000000E+000	0.0000000E+000	0.0000000E+000	-75.5529	0.0000000E+000	0.0000000E+000	0.0000000E+000	-14.4471	0.0000000E+000	0.0000000E+000	0.0000000E+000	14.4471	3.8815	75.5529	9.82735e-07	-6.15917e-05	1.78375e-09	-6.15935e-05	3.87992	244398	7.07799	244405
2510.8	2.61394	0.714632	2.70987	-15.2906	12.5188	3.87998	0.139997	88.7002	6.16871	1	9	0.00472489	0.00174359	0	0.000247441	0.000135642	9.09344e-06	5.7752	0.00521535	0.00518888	-0.000524798	-15.251	2.71473	2.61913	0.714108	0.355959	0.0973167	0.369022	15.2906	6168.72	22563.5	23391.6	-74.7094	0.0000000E+000	0.0000000E+000	0.0000000E+000	74.7094	0.0000000E+000	0.0000000E+000	0.0000000E+000	-74.7094	0.0000000E+000	0.0000000E+000	0.0000000E+000	-15.2906	0.0000000E+000	0.0000000E+000	0.0000000E+000	15.2906	3.65774	74.7094	1.78787e-05	0.000543187	1.89895e-08	0.000543168	3.87985	27714.7	0.968893	27713.8
1585.51	2.78635	0.797536	2.89824	-15.9727	13.4208	3.87999	0.139103	125.864	9.53088	1	9	0.00469777	0.0016209	0	0.000278392	9.74876e-05	6.37968e-06	-62.4349	0.00393588	0.00182135	0.0034891	-16.029	2.90095	2.78817	0.801025	0.331716	0.0949469	0.345037	15.9727	9530.88	33298	34635.2	-74.0273	0.0000000E+000	0.0000000E+000	0.0000000E+000	74.0273	0.0000000E+000	0.0000000E+000	0.0000000E+000	-74.0273	0.0000000E+000	0.0000000E+000	0.0000000E+000	-15.9727	0.0000000E+000	0.0000000E+000	0.0000000E+000	15.9727	3.4937	74.0273	1.52641e-05	0.000539718	1.35608e-08	0.000539704	3.87989	27892.9	0.70083	27892.2
1000.32	3.02872	0.995099	3.188	-18.1882	14.3238	3.88	0.133552	159.888	15.578	1	9	0.00465284	0.00145948	0	0.000310208	0.000135642	4.64936e-05	10.7127	0.0318561	0.0313009	-0.00592158	-17.9139	3.21593	3.06002	0.989178	0.298004	0.0979106	0.313676	18.1882	15578	47413.6	49907.1	-71.8118	0.0000000E+000	0.0000000E+000	0.0000000E+000	71.8118	0.0000000E+000	0.0000000E+000	0.0000000E+000	-71.8118	0.0000000E+000	0.0000000E+000	0.0000000E+000	-18.1882	0.0000000E+000	0.0000000E+000	0.0000000E+000	18.1882	3.04363	71.8118	1.48615e-05	0.000518182	1.81153e-08	0.000518164	3.87986	29052.3	1.01565	29051.3
631.01	3.31578	1.10137	3.49391	-18.3744	15.4696	3.87994	0.00175868	229.009	22.7558	1	10	0.00473902	0.00135637	0	0.000317091	-0.000112363	1.35719e-05	-31.1317	0.010006	0.00856498	0.00517318	-18.4105	3.50367	3.32435	1.10654	0.27162	0.0902211	0.286212	18.3744	22755.8	68508.8	72189.2	-71.6256	0.0000000E+000	0.0000000E+000	0.0000000E+000	71.6256	0.0000000E+000	0.0000000E+000	0.0000000E+000	-71.6256	0.0000000E+000	0.0000000E+000	0.0000000E+000	-18.3744	0.0000000E+000	0.0000000E+000	0.0000000E+000	18.3744	3.01061	71.6256	-7.188e-07	6.82358e-06	-1.97611e-10	6.82378e-06	3.88005	2.20616e+06	63.8902	2.20622e+06
398.089	3.70501	1.25842	3.91289	-18.7603	16.3719	3.87992	-6.00631e-05	317.697	32.8603	1	10	0.00471389	0.00120471	0	0.000317578	2.10111e-06	1.0406e-05	61.7715	0.00863779	0.00408558	-0.00761048	-18.6356	3.91432	3.70909	1.25081	0.241988	0.0821923	0.255566	18.7603	32860.3	96746.1	102174	-71.2397	0.0000000E+000	0.0000000E+000	0.0000000E+000	71.2397	0.0000000E+000	0.0000000E+000	0.0000000E+000	-71.2397	0.0000000E+000	0.0000000E+000	0.0000000E+000	-18.7603	0.0000000E+000	0.0000000E+000	0.0000000E+000	18.7603	2.94417	71.2397	9.59988e-07	-2.3304e-07	-1.26199e-13	-2.3304e-07	3.87992	6.45974e+07	34.9817	6.45974e+07
251.044	4.19267	1.36744	4.41003	-18.0638	17.27	3.87992	-0.00277328	463.618	44.5754	1	10	0.00470392	0.00106664	0	0.000316781	0.000211951	5.23075e-06	71.2498	0.00490395	0.00157634	-0.00464369	-18.0001	4.4101	4.19425	1.3628	0.215579	0.0703113	0.226756	18.0638	44575.4	136671	143757	-71.9362	0.0000000E+000	0.0000000E+000	0.0000000E+000	71.9362	0.0000000E+000	0.0000000E+000	0.0000000E+000	-71.9362	0.0000000E+000	0.0000000E+000	0.0000000E+000	-18.0638	0.0000000E+000	0.0000000E+000	0.0000000E+000	18.0638	3.06607	71.9362	1.17539e-07	-1.07601e-05	-5.87801e-10	-1.07595e-05	3.8797	1.39904e+06	76.4263	1.39896e+06
158.428	4.71186	1.32612	4.89491	-15.7189	18.1748	3.87993	-0.00203907	757.54	55.6005	1	10	0.00468974	0.000958085	0	0.000315956	0.000173797	1.75075e-05	-49.5585	0.0182734	0.0118535	0.0139074	-15.8376	4.9101	4.72371	1.34002	0.196654	0.0553467	0.204294	15.7189	55600.5	197556	205231	-74.2811	0.0000000E+000	0.0000000E+000	0.0000000E+000	74.2811	0.0000000E+000	0.0000000E+000	0.0000000E+000	-74.2811	0.0000000E+000	0.0000000E+000	0.0000000E+000	-15.7189	0.0000000E+000	0.0000000E+000	0.0000000E+000	15.7189	3.55312	74.2811	-1.75644e-07	-7.91145e-06	-3.54384e-10	-7.91109e-06	3.87975	1.90279e+06	85.2334	1.90271e+06
100.032	5.1781	1.15218	5.30474	-12.5446	19.0738	3.87993	-0.00169619	1380.89	65.144	1	10	0.00469209	0.000884509	0	0.000315279	0.000211951	4.57208e-06	-89.3064	0.00516906	6.25696e-05	0.00516868	-12.5989	5.30593	5.17817	1.15735	0.18401	0.0409443	0.188511	12.5446	65144	292768	299928	-77.4554	0.0000000E+000	0.0000000E+000	0.0000000E+000	77.4554	0.0000000E+000	0.0000000E+000	0.0000000E+000	-77.4554	0.0000000E+000	0.0000000E+000	0.0000000E+000	-12.5446	0.0000000E+000	0.0000000E+000	0.0000000E+000	12.5446	4.49416	77.4554	-1.3505e-06	-6.58111e-06	-3.59511e-10	-6.58075e-06	3.87972	2.28743e+06	124.957	2.28731e+06
63.0823	5.52076	0.928532	5.5983	-9.54718	19.9909	3.87994	0.000308896	2717.16	74.7476	1	10	0.00468505	0.00083687	0	0.000315296	0.00015472	2.33445e-06	63.9424	0.0027895	0.00122536	-0.00250596	-9.51981	5.59909	5.52198	0.926026	0.176152	0.0296268	0.178626	9.54718	74747.7	444426	450668	-80.4528	0.0000000E+000	0.0000000E+000	0.0000000E+000	80.4528	0.0000000E+000	0.0000000E+000	0.0000000E+000	-80.4528	0.0000000E+000	0.0000000E+000	0.0000000E+000	-9.54718	0.0000000E+000	0.0000000E+000	0.0000000E+000	9.54718	5.94568	80.4528	-6.08631e-08	1.1985e-06	4.77923e-11	1.19845e-06	3.87979	1.25607e+07	500.879	1.25602e+07
39.8089	5.71006	0.700866	5.75291	-6.99761	20.8918	3.87993	-0.00358576	5704.33	84.6641	1	10	0.00464836	0.000808001	0	0.000316154	-0.000245904	4.95204e-05	25.9801	0.0612875	0.0550942	-0.0268476	-6.66832	5.80442	5.76515	0.674018	0.17253	0.0211768	0.173825	6.99761	84664.1	689771	694948	-83.0024	0.0000000E+000	0.0000000E+000	0.0000000E+000	83.0024	0.0000000E+000	0.0000000E+000	0.0000000E+000	-83.0024	0.0000000E+000	0.0000000E+000	0.0000000E+000	-6.99761	0.0000000E+000	0.0000000E+000	0.0000000E+000	6.99761	8.14715	83.0024	4.42949e-07	-1.39125e-05	8.81752e-10	-1.39134e-05	3.88018	1.08204e+06	68.5779	1.08211e+06
25.1044	5.87672	0.513468	5.89911	-4.99344	21.771	3.87993	-0.0063996	12346.8	93.5428	1	10	0.00468921	0.0007949	0	0.000315338	-1.69762e-05	8.88416e-06	-59.3586	0.0111764	0.00569622	0.00961592	-5.08157	5.90563	5.88242	0.523084	0.168874	0.014755	0.169517	4.99344	93542.8	1.07061e+06	1.07469e+06	-85.0066	0.0000000E+000	0.0000000E+000	0.0000000E+000	85.0066	0.0000000E+000	0.0000000E+000	0.0000000E+000	-85.0066	0.0000000E+000	0.0000000E+000	0.0000000E+000	-4.99344	0.0000000E+000	0.0000000E+000	0.0000000E+000	4.99344	11.4451	85.0066	-1.33138e-06	-2.483e-05	1.08641e-10	-2.48301e-05	3.87995	606278	2.6527	606280
15.8576	5.96542	0.371008	5.97695	-3.55882	22.649	3.87994	-0.00977621	27052	104.234	1	10	0.0046959	0.000785669	0	0.000318341	-0.000112363	1.84245e-05	-104.687	0.0234507	-0.00594565	0.0226844	-3.77956	5.97247	5.95948	0.393693	0.166987	0.0103854	0.167309	3.55882	104234	1.67597e+06	1.67921e+06	-86.4412	0.0000000E+000	0.0000000E+000	0.0000000E+000	86.4412	0.0000000E+000	0.0000000E+000	0.0000000E+000	-86.4412	0.0000000E+000	0.0000000E+000	0.0000000E+000	-3.55882	0.0000000E+000	0.0000000E+000	0.0000000E+000	3.55882	16.0789	86.4412	2.37848e-06	-3.79311e-05	1.09848e-09	-3.79322e-05	3.88005	396876	11.4935	396888
10.0032	5.99724	0.273445	6.00347	-2.6106	23.6309	3.87992	-0.00668657	58184.9	120.711	1	10	0.00468086	0.000779692	0	0.000313245	2.11784e-05	5.22734e-06	-40.4673	0.00670437	0.00510053	0.00435123	-2.64984	6.00877	6.00234	0.277797	0.166397	0.00758692	0.16657	2.6106	120711	2.64745e+06	2.6502e+06	-87.3894	0.0000000E+000	0.0000000E+000	0.0000000E+000	87.3894	0.0000000E+000	0.0000000E+000	0.0000000E+000	-87.3894	0.0000000E+000	0.0000000E+000	0.0000000E+000	-2.6106	0.0000000E+000	0.0000000E+000	0.0000000E+000	2.6106	21.9321	87.3894	-5.54427e-06	-2.59434e-05	-1.41611e-10	-2.59432e-05	3.8799	580256	3.1673	580252
6.31058	6.04505	0.217885	6.04898	-2.06425	24.5543	3.87994	-0.0115502	115751	150.181	1	10	0.00468607	0.000774689	0	0.000317744	0.000250106	5.05984e-06	4.19033	0.00653145	0.00651399	-0.000477252	-2.05751	6.05547	6.05156	0.217408	0.16521	0.00595475	0.165317	2.06425	150181	4.16665e+06	4.16936e+06	-87.9358	0.0000000E+000	0.0000000E+000	0.0000000E+000	87.9358	0.0000000E+000	0.0000000E+000	0.0000000E+000	-87.9358	0.0000000E+000	0.0000000E+000	0.0000000E+000	-2.06425	0.0000000E+000	0.0000000E+000	0.0000000E+000	2.06425	27.7442	87.9358	-1.04866e-06	-4.48142e-05	-2.88878e-09	-4.48113e-05	3.87969	335919	21.6538	335897
3.97785	6.08881	0.202115	6.09216	-1.90121	25.5613	3.87997	-0.00195709	197958	217.885	1	10	0.00468963	0.00076978	0	0.000311	7.84103e-05	3.26914e-06	-18.8178	0.00424685	0.00401985	0.00136986	-1.91282	6.09623	6.09283	0.203485	0.164055	0.00544573	0.164145	1.90121	217885	6.56388e+06	6.5675e+06	-88.0988	0.0000000E+000	0.0000000E+000	0.0000000E+000	88.0988	0.0000000E+000	0.0000000E+000	0.0000000E+000	-88.0988	0.0000000E+000	0.0000000E+000	0.0000000E+000	-1.90121	0.0000000E+000	0.0000000E+000	0.0000000E+000	1.90121	30.1254	88.0988	2.21635e-06	-7.59345e-06	-1.53456e-10	-7.59329e-06	3.87989	1.98252e+06	40.0648	1.98248e+06
2.51367	6.13107	0.201388	6.13437	-1.88133	27.5629	3.87999	0.00359543	314396	338.847	1	11	0.00468769	0.000764167	0	0.000324218	0.000192874	4.86181e-06	14.0141	0.00636223	0.00617286	-0.00154068	-1.86507	6.14049	6.13724	0.199847	0.162928	0.00535172	0.163016	1.88133	338847	1.03159e+07	1.03215e+07	-88.1187	0.0000000E+000	0.0000000E+000	0.0000000E+000	88.1187	0.0000000E+000	0.0000000E+000	0.0000000E+000	-88.1187	0.0000000E+000	0.0000000E+000	0.0000000E+000	-1.88133	0.0000000E+000	0.0000000E+000	0.0000000E+000	1.88133	30.4441	88.1187	2.59407e-06	1.39502e-05	6.93466e-10	1.39496e-05	3.8798	1.07914e+06	53.6442	1.07909e+06
1.58469	6.16854	0.222757	6.17256	-2.06815	29.9985	3.87998	0.000858653	450864	587.189	1	11	0.00468414	0.000758866	0	0.000300539	-0.000150517	1.39057e-06	-94.4142	0.00183243	-0.000141036	0.00182699	-2.08515	6.17248	6.1684	0.224584	0.161902	0.00584656	0.162007	2.06815	587189	1.62603e+07	1.62709e+07	-87.9318	0.0000000E+000	0.0000000E+000	0.0000000E+000	87.9318	0.0000000E+000	0.0000000E+000	0.0000000E+000	-87.9318	0.0000000E+000	0.0000000E+000	0.0000000E+000	-2.06815	0.0000000E+000	0.0000000E+000	0.0000000E+000	2.06815	27.6918	87.9318	-1.02769e-05	3.33156e-06	-1.29242e-10	3.33169e-06	3.88013	4.51869e+06	175.295	4.51886e+06
1.00469	6.32145	0.253662	6.32654	-2.29789	240.816	3.87997	-0.0184089	624497	1003.94	1	11	0.00500907	0.000791755	0	-0.00342491	0.000307338	4.31773e-07	8.12446	0.000545336	0.000539863	-7.7069e-05	-2.29699	6.32708	6.32199	0.253585	0.157937	0.00633758	0.158064	2.29789	1.00395e+06	2.5019e+07	2.50392e+07	-87.7021	0.0000000E+000	0.0000000E+000	0.0000000E+000	87.7021	0.0000000E+000	0.0000000E+000	0.0000000E+000	-87.7021	0.0000000E+000	0.0000000E+000	0.0000000E+000	-2.29789	0.0000000E+000	0.0000000E+000	0.0000000E+000	2.29789	24.9207	87.7021	-0.00373004	-7.14258e-05	-5.65774e-09	-7.14201e-05	3.87966	210766	16.6951	210750
0.632957	6.38009	0.310339	6.38764	-2.78477	240.817	3.87997	-0.0184089	810233	1912.5	1	11	0.00502157	0.000786139	0	-0.00342491	0.000307338	4.30972e-07	5.8392	0.000548213	0.000545369	-5.57735e-05	-2.78403	6.38818	6.38064	0.310283	0.156368	0.00760598	0.156552	2.78477	1.9125e+06	3.93181e+07	3.93646e+07	-87.2152	0.0000000E+000	0.0000000E+000	0.0000000E+000	87.2152	0.0000000E+000	0.0000000E+000	0.0000000E+000	-87.2152	0.0000000E+000	0.0000000E+000	0.0000000E+000	-2.78477	0.0000000E+000	0.0000000E+000	0.0000000E+000	2.78477	20.5585	87.2152	0.000000000000000E+000	-7.14258e-05	-5.65774e-09	-7.14201e-05	3.87966	210766	16.6951	210750
0.401878	6.43656	0.383276	6.44797	-3.40775	240.818	3.87997	-0.0184089	1.03327e+06	3650.83	1	11	0.0050356	0.000780959	0	-0.00342491	0.000307338	4.03793e-07	-20.5769	0.000517048	0.000484061	0.000181723	-3.4091	6.44846	6.43705	0.383457	0.154813	0.00921862	0.155088	3.40775	3.65083e+06	6.13105e+07	6.14191e+07	-86.5923	0.0000000E+000	0.0000000E+000	0.0000000E+000	86.5923	0.0000000E+000	0.0000000E+000	0.0000000E+000	-86.5923	0.0000000E+000	0.0000000E+000	0.0000000E+000	-3.40775	0.0000000E+000	0.0000000E+000	0.0000000E+000	3.40775	16.7936	86.5923	0.000000000000000E+000	-7.14258e-05	-5.65774e-09	-7.14201e-05	3.87966	210766	16.6951	210750
0.251173	6.53797	0.502099	6.55722	-4.39155	240.819	3.87997	-0.0184089	1.26199e+06	7399.41	1	11	0.00503551	0.000767934	0	-0.00342491	0.000307338	3.35184e-07	-21.9935	0.000436475	0.000404711	0.00016346	-4.3927	6.55763	6.53837	0.502263	0.152056	0.0116775	0.152504	4.39155	7.3994e+06	9.63496e+07	9.66333e+07	-85.6085	0.0000000E+000	0.0000000E+000	0.0000000E+000	85.6085	0.0000000E+000	0.0000000E+000	0.0000000E+000	-85.6085	0.0000000E+000	0.0000000E+000	0.0000000E+000	-4.39155	0.0000000E+000	0.0000000E+000	0.0000000E+000	4.39155	13.0213	85.6085	0.000000000000000E+000	-7.14258e-05	-5.65774e-09	-7.14201e-05	3.87966	210766	16.6951	210750
0.160751	6.65767	0.575124	6.68246	-4.93725	240.82	3.87997	-0.0184089	1.72149e+06	12751.3	1	11	0.00503167	0.000752966	0	-0.00342491	0.000307338	3.23062e-07	-12.6245	0.000429052	0.000418679	9.37736e-05	-4.93775	6.68289	6.65809	0.575218	0.14909	0.0128792	0.149645	4.93725	1.27513e+07	1.4761e+08	1.4816e+08	-85.0627	0.0000000E+000	0.0000000E+000	0.0000000E+000	85.0627	0.0000000E+000	0.0000000E+000	0.0000000E+000	-85.0627	0.0000000E+000	0.0000000E+000	0.0000000E+000	-4.93725	0.0000000E+000	0.0000000E+000	0.0000000E+000	4.93725	11.5761	85.0627	0.000000000000000E+000	-7.14258e-05	-5.65774e-09	-7.14201e-05	3.87966	210766	16.6951	210750
0.100469	6.78236	0.805949	6.83008	-6.77668	240.821	3.87997	-0.0184089	1.96553e+06	27367.9	1	11	0.00503378	0.000737002	0	-0.00342491	0.000307338	4.75291e-07	-14.1907	0.000644898	0.000625219	0.000158097	-6.77738	6.83072	6.78299	0.806107	0.145388	0.0172765	0.146411	6.77668	2.7368e+07	2.30312e+08	2.31932e+08	-83.2233	0.0000000E+000	0.0000000E+000	0.0000000E+000	83.2233	0.0000000E+000	0.0000000E+000	0.0000000E+000	-83.2233	0.0000000E+000	0.0000000E+000	0.0000000E+000	-6.77668	0.0000000E+000	0.0000000E+000	0.0000000E+000	6.77668	8.41538	83.2233	0.000000000000000E+000	-7.14258e-05	-5.65774e-09	-7.14201e-05	3.87966	210766	16.6951	210750
0.0602816	7.02065	1.02081	7.09448	-8.27287	240.822	3.87997	-0.0184089	2.58637e+06	53547.4	1	11	0.00502884	0.000708839	0	-0.00342491	0.000307338	4.16762e-07	-45.3081	0.00058795	0.000413501	0.000417973	-8.27573	7.09494	7.02106	1.02123	0.139488	0.0202817	0.140955	8.27287	5.35474e+07	3.68275e+08	3.72147e+08	-81.7271	0.0000000E+000	0.0000000E+000	0.0000000E+000	81.7271	0.0000000E+000	0.0000000E+000	0.0000000E+000	-81.7271	0.0000000E+000	0.0000000E+000	0.0000000E+000	-8.27287	0.0000000E+000	0.0000000E+000	0.0000000E+000	8.27287	6.87754	81.7271	0.000000000000000E+000	-7.14258e-05	-5.65774e-09	-7.14201e-05	3.87966	210766	16.6951	210750
0.0401878	7.31192	1.2193	7.41289	-9.46727	240.823	3.87997	-0.0184089	3.24799e+06	87874.6	1	11	0.00502703	0.000678148	0	-0.00342491	0.000307338	2.11748e-07	4.93975	0.000312244	0.000311084	-2.68868e-05	-9.46667	7.41319	7.31224	1.21928	0.133063	0.0221889	0.1349	9.46727	8.78745e+07	5.26966e+08	5.34243e+08	-80.5327	0.0000000E+000	0.0000000E+000	0.0000000E+000	80.5327	0.0000000E+000	0.0000000E+000	0.0000000E+000	-80.5327	0.0000000E+000	0.0000000E+000	0.0000000E+000	-9.46727	0.0000000E+000	0.0000000E+000	0.0000000E+000	9.46727	5.9968	80.5327	0.000000000000000E+000	-7.14258e-05	-5.65774e-09	-7.14201e-05	3.87966	210766	16.6951	210750
0.0200939	8.0241	1.79559	8.22255	-12.6136	240.824	3.87997	-0.0184089	4.41112e+06	210354	1	11	0.00502774	0.000611457	0	-0.00342491	0.000307338	6.80902e-07	-29.4949	0.00111357	0.000969253	0.000548264	-12.6158	8.22361	8.02507	1.79614	0.118682	0.026558	0.121617	12.6136	2.10354e+08	9.40026e+08	9.63274e+08	-77.3864	0.0000000E+000	0.0000000E+000	0.0000000E+000	77.3864	0.0000000E+000	0.0000000E+000	0.0000000E+000	-77.3864	0.0000000E+000	0.0000000E+000	0.0000000E+000	-12.6136	0.0000000E+000	0.0000000E+000	0.0000000E+000	12.6136	4.46877	77.3864	0.000000000000000E+000	-7.14258e-05	-5.65774e-09	-7.14201e-05	3.87966	210766	16.6951	210750
0.00796479	9.03421	2.18198	9.29397	-13.5783	20329.7	3.87998	0.00200801	9.15787e+06	504771	1	11	0.00502292	0.00054045	0	-0.0537644	-7.42081e-05	5.37367e-07	-12.6527	0.000994297	0.000970151	0.000217791	-13.5782	9.29497	9.03518	2.1822	0.104589	0.0252609	0.107597	13.5783	5.04771e+08	2.08994e+09	2.15003e+09	-76.4217	0.0000000E+000	0.0000000E+000	0.0000000E+000	76.4217	0.0000000E+000	0.0000000E+000	0.0000000E+000	-76.4217	0.0000000E+000	0.0000000E+000	0.0000000E+000	-13.5783	0.0000000E+000	0.0000000E+000	0.0000000E+000	13.5783	4.14037	76.4217	-0.0503395	7.79103e-06	-1.4901e-10	7.79118e-06	3.88006	1.93226e+06	36.9561	1.93229e+06
0.00497799	9.6722	2.30162	9.94228	-13.3853	20329.7	3.87998	0.00200801	1.3891e+07	744437	1	11	0.00503007	0.000505928	0	-0.0537644	-7.42081e-05	3.97984e-07	-16.3808	0.000786642	0.000754711	0.000221849	-13.3855	9.94306	9.67295	2.30184	0.0978483	0.0232842	0.100581	13.3853	7.44436e+08	3.12838e+09	3.21573e+09	-76.6147	0.0000000E+000	0.0000000E+000	0.0000000E+000	76.6147	0.0000000E+000	0.0000000E+000	0.0000000E+000	-76.6147	0.0000000E+000	0.0000000E+000	0.0000000E+000	-13.3853	0.0000000E+000	0.0000000E+000	0.0000000E+000	13.3853	4.20234	76.6147	0.000000000000000E+000	7.79103e-06	-1.4901e-10	7.79118e-06	3.88006	1.93226e+06	36.9561	1.93229e+06
0.00318591	10.1291	3.08019	10.5871	-16.9141	20329.7	3.87998	0.00200801	1.62184e+07	1.37281e+06	1	11	0.00503265	0.000475358	0	-0.0537644	-7.42081e-05	4.25151e-07	-21.5915	0.00089438	0.000831623	0.00032912	-16.9145	10.588	10.1299	3.08052	0.0903688	0.0274805	0.0944548	16.9141	1.37281e+09	4.51445e+09	4.71856e+09	-73.0859	0.0000000E+000	0.0000000E+000	0.0000000E+000	73.0859	0.0000000E+000	0.0000000E+000	0.0000000E+000	-73.0859	0.0000000E+000	0.0000000E+000	0.0000000E+000	-16.9141	0.0000000E+000	0.0000000E+000	0.0000000E+000	16.9141	3.28847	73.0859	0.000000000000000E+000	7.79103e-06	-1.4901e-10	7.79118e-06	3.88006	1.93226e+06	36.9561	1.93229e+06
0.0019912	10.4798	3.8007	11.1477	-19.9342	20329.7	3.87998	0.00200801	2.10301e+07	2.44456e+06	1	11	0.00503514	0.000451676	0	-0.0537644	-7.42081e-05	5.29382e-07	-32.1504	0.00117204	0.000992312	0.000623694	-19.9355	11.1488	10.4808	3.80133	0.08433	0.030584	0.0897047	19.9342	2.44456e+09	6.74044e+09	7.17004e+09	-70.0658	0.0000000E+000	0.0000000E+000	0.0000000E+000	70.0658	0.0000000E+000	0.0000000E+000	0.0000000E+000	-70.0658	0.0000000E+000	0.0000000E+000	0.0000000E+000	-19.9342	0.0000000E+000	0.0000000E+000	0.0000000E+000	19.9342	2.75732	70.0658	0.000000000000000E+000	7.79103e-06	-1.4901e-10	7.79118e-06	3.88006	1.93226e+06	36.9561	1.93229e+06
0.00129428	10.1647	5.06059	11.3548	-26.4668	20329.7	3.87998	0.00200801	2.42992e+07	4.82655e+06	1	11	0.00503397	0.000443335	0	-0.0537644	-7.42081e-05	4.45523e-07	-25.5548	0.00100493	0.000906624	0.000433503	-26.4667	11.3558	10.1656	5.06103	0.0788384	0.0392504	0.0880686	26.4668	4.82655e+09	9.69461e+09	1.08296e+10	-63.5332	0.0000000E+000	0.0000000E+000	0.0000000E+000	63.5332	0.0000000E+000	0.0000000E+000	0.0000000E+000	-63.5332	0.0000000E+000	0.0000000E+000	0.0000000E+000	-26.4668	0.0000000E+000	0.0000000E+000	0.0000000E+000	26.4668	2.0086	63.5332	0.000000000000000E+000	7.79103e-06	-1.4901e-10	7.79118e-06	3.88006	1.93226e+06	36.9561	1.93229e+06
0.000796479	11.1678	7.44807	13.4236	-33.7003	20329.7	3.87998	0.00200801	2.68289e+07	8.25948e+06	1	11	0.00503732	0.000375259	0	-0.0537644	-7.42081e-05	3.24932e-07	-58.7695	0.000865887	0.000448947	0.00074041	-33.7019	13.4244	11.1682	7.44881	0.0619768	0.0413339	0.0744957	33.7003	8.25947e+09	1.23844e+10	1.4886e+10	-56.2997	0.0000000E+000	0.0000000E+000	0.0000000E+000	56.2997	0.0000000E+000	0.0000000E+000	0.0000000E+000	-56.2997	0.0000000E+000	0.0000000E+000	0.0000000E+000	-33.7003	0.0000000E+000	0.0000000E+000	0.0000000E+000	33.7003	1.49942	56.2997	0.000000000000000E+000	7.79103e-06	-1.4901e-10	7.79118e-06	3.88006	1.93226e+06	36.9561	1.93229e+06
0.000497799	11.0178	10.6813	15.3454	-44.1116	20329.7	3.87998	0.00200801	2.99324e+07	1.45022e+07	1	11	0.00503727	0.000328259	0	-0.0537644	-7.42081e-05	2.88028e-07	-111.105	0.00087744	-0.000315946	0.000818583	-44.1147	15.3457	11.0175	10.6821	0.0467883	0.0453594	0.0651661	44.1116	1.45022e+10	1.4959e+10	2.08347e+10	-45.8884	0.0000000E+000	0.0000000E+000	0.0000000E+000	45.8884	0.0000000E+000	0.0000000E+000	0.0000000E+000	-45.8884	0.0000000E+000	0.0000000E+000	0.0000000E+000	-44.1116	0.0000000E+000	0.0000000E+000	0.0000000E+000	44.1116	1.0315	45.8884	0.000000000000000E+000	7.79103e-06	-1.4901e-10	7.79118e-06	3.88006	1.93226e+06	36.9561	1.93229e+06
0.000298679	10.2909	16.6567	19.5793	-58.2914	20329.7	3.87998	0.00200801	3.19908e+07	2.31532e+07	1	11	0.00503899	0.000257363	0	-0.0537644	-7.42081e-05	6.60014e-07	-44.6436	0.00256452	0.00182463	0.00180208	-58.2896	19.5818	10.2927	16.6585	0.0268446	0.0434506	0.0510744	58.2914	2.31532e+10	1.43045e+10	2.72156e+10	-31.7086	0.0000000E+000	0.0000000E+000	0.0000000E+000	31.7086	0.0000000E+000	0.0000000E+000	0.0000000E+000	-31.7086	0.0000000E+000	0.0000000E+000	0.0000000E+000	-58.2914	0.0000000E+000	0.0000000E+000	0.0000000E+000	58.2914	0.61782	31.7086	0.000000000000000E+000	7.79103e-06	-1.4901e-10	7.79118e-06	3.88006	1.93226e+06	36.9561	1.93229e+06
9.95598e-05	8.45363	72.045	72.5393	-83.3076	20329.7	3.87998	0.00200801	2.21887e+07	2.18874e+07	1	11	0.00503811	6.94536e-05	0	-0.0537644	-7.42081e-05	1.8248e-06	-75.0502	0.0262737	0.00677788	0.0253844	-83.3046	72.5653	8.46041	72.0704	0.00160656	0.0136917	0.0137856	83.3076	2.18874e+10	2.56822e+09	2.20375e+10	-6.69238	0.0000000E+000	0.0000000E+000	0.0000000E+000	6.69238	0.0000000E+000	0.0000000E+000	0.0000000E+000	-6.69238	0.0000000E+000	0.0000000E+000	0.0000000E+000	-83.3076	0.0000000E+000	0.0000000E+000	0.0000000E+000	83.3076	0.117338	6.69238	0.000000000000000E+000	7.79103e-06	-1.4901e-10	7.79118e-06	3.88006	1.93226e+06	36.9561	1.93229e+06