File: txt/19749_R319_UC100_SOC50_C05.mpt
EC-Lab ASCII FILE
Nb header lines : 65

Potentio Electrochemical Impedance Spectroscopy

Run on channel : 5 (SN 65912)
User :
CE vs. WE compliance from -10 V to 10 V
Electrode connection : standard
Potential control : Ewe
Ewe ctrl range : min = -10.00 V, max = 10.00 V
Safety Limits :
	Do not start on E overload
Acquisition started on : 12/15/2025 16:10:54.976
Technique started on : 12/15/2025 16:10:55.863
Loaded Setting File :  C:\Users\Celltest\OneDrive - store-dot.com\Documents\EC-Lab\Data\@Biologic Test Protocols\cathode half cell EIS SOC50.mps
Saved on :
	File : 19749_R319_UC100_SOC50_C05.mpr
	Directory : C:\Users\Celltest\OneDrive - store-dot.com\Documents\EC-Lab\Data\Michael\
	Host : 169.254.61.224
Device : VMP-3e (SN .003165)
Address : USB
EC-LAB for windows v11.62 (software)
Internet server v27.00 (firmware)
Command interpretor v12.03 (firmware)
Electrode material :
Initial state :
Electrolyte :
Comments :
Electrode surface area : 0.001 cm²
Characteristic mass : 0.001 g
Equivalent Weight : 0.000 g/eq.
Density : 0.000 g/cm3
Volume (V) : 0.001 cm³
Record Ece
Cycle Definition : Charge/Discharge alternance
Mode                Multi sine
E (V)               0.0000
vs.                 Eoc
tE (h:m:s)          0:00:0.0000
record              0
dI                  0.000
unit dI             mA
dt (s)              0.000
fi                  1.000
unit fi             MHz
ff                  0.100
unit ff             mHz
Nd                  10
Points              per decade
spacing             Logarithmic
Va (mV)             5.0
pw                  0.10
Na                  2
corr                0
E range min (V)     -10.000
E range max (V)     10.000
I Range             Auto
Bandwidth           5
nc cycles           0
goto Ns'            0
nr cycles           0
inc. cycle          0

freq/Hz	Re(Z)/Ohm	-Im(Z)/Ohm	|Z|/Ohm	Phase(Z)/deg	time/s	<Ewe>/V	<I>/mA	Cs/µF	Cp/µF	cycle number	I Range	|Ewe|/V	|I|/A	Ns	(Q-Qo)/mA.h	<Ece>/V	|Ece|/V	Phase(Zce)/deg	|Zce|/Ohm	Re(Zce)/Ohm	-Im(Zce)/Ohm	Phase(Zwe-ce)/deg	|Zwe-ce|/Ohm	Re(Zwe-ce)/Ohm	-Im(Zwe-ce)/Ohm	Re(Y)/Ohm-1	Im(Y)/Ohm-1	|Y|/Ohm-1	Phase(Y)/deg	Re(C)/nF	Im(C)/nF	|C|/nF	Phase(C)/deg	Re(M)	Im(M)	|M|	Phase(M)/deg	Re(Permittivity)	Im(Permittivity)	|Permittivity|	Phase(Permittivity)/deg	Re(Resistivity)/Ohm.cm	Im(Resistivity)/Ohm.cm	|Resistivity|/Ohm.cm	Phase(Resistivity)/deg	Re(Conductivity)/mS/cm	Im(Conductivity)/mS/cm	|Conductivity|/mS/cm	Phase(Conductivity)/deg	Tan(Delta)	Loss Angle(Delta)/deg	dq/mA.h	Pwe/W	Pce/W	Pwe-ce/W	<Ewe-Ece>/V	Rwe/Ohm	Rce/Ohm	Rwe-ce/Ohm		Ewe-Ece/V
1.00002e+06	-106.101	-363.853	379.007	106.257	0.886515	3.88653	-0.0561994	-0.000437408	-0.000403128	1	12	0.000169426	4.47026e-07	0	-4.05594e-06	0.000321514	0.000174144	97.6918	389.562	-52.1408	-386.057	101.915	766.424	-158.242	-749.91	-0.000738628	-0.00253298	0.00263847	-106.257	-0.403128	-0.117554	0.419918	163.743	0.0000000E+000	0.0000000E+000	0.0000000E+000	-163.743	0.0000000E+000	0.0000000E+000	0.0000000E+000	163.743	0.0000000E+000	0.0000000E+000	0.0000000E+000	106.257	0.0000000E+000	0.0000000E+000	0.0000000E+000	-106.257	0.291605	16.2569	-4.05594e-06	-0.000218421	-1.80689e-08	-0.000218402	3.88621	69156.1	5.72095	69150.4
630957	0.424973	0.182943	0.462677	-23.291	2.98552	3.8873	0.0808633	1.37881	0.215566	1	9	0.00014832	0.000320568	0	1.9219e-05	-4.12192e-05	0.000108429	-107.753	0.33824	-0.103135	0.322133	-57.4944	0.5989	0.321838	0.505076	1.9852	0.854593	2.16133	23.291	215.566	500.755	545.183	-66.709	0.0000000E+000	0.0000000E+000	0.0000000E+000	66.709	0.0000000E+000	0.0000000E+000	0.0000000E+000	-66.709	0.0000000E+000	0.0000000E+000	0.0000000E+000	-23.291	0.0000000E+000	0.0000000E+000	0.0000000E+000	23.291	2.32298	66.709	8.28441e-06	0.00031434	-3.33312e-09	0.000314343	3.88734	48072.5	0.50974	48073
398103	0.639426	0.122691	0.65109	-10.8617	3.75356	3.88705	0.0308502	3.25846	0.115705	1	9	0.000609066	0.000935456	0	2.53648e-05	5.42368e-05	4.65812e-05	163.405	0.0497951	-0.047721	-0.0142219	-10.3879	0.601565	0.591705	0.108469	1.50837	0.289421	1.53589	10.8617	115.705	603.02	614.021	-79.1383	0.0000000E+000	0.0000000E+000	0.0000000E+000	79.1383	0.0000000E+000	0.0000000E+000	0.0000000E+000	-79.1383	0.0000000E+000	0.0000000E+000	0.0000000E+000	-10.8617	0.0000000E+000	0.0000000E+000	0.0000000E+000	10.8617	5.21169	79.1383	2.25882e-06	0.000119916	1.67322e-09	0.000119915	3.887	125997	1.75807	125996
251206	0.745711	0.286263	0.798769	-21.0007	4.51953	3.88683	-0.00154835	2.21322	0.284258	1	9	0.00199786	0.00250118	0	2.54288e-05	9.24193e-05	5.08531e-05	98.2251	0.0203316	-0.00290868	-0.0201225	-19.7122	0.789041	0.742802	0.26614	1.16877	0.448666	1.25193	21.0007	284.258	740.489	793.175	-68.9993	0.0000000E+000	0.0000000E+000	0.0000000E+000	68.9993	0.0000000E+000	0.0000000E+000	0.0000000E+000	-68.9993	0.0000000E+000	0.0000000E+000	0.0000000E+000	-21.0007	0.0000000E+000	0.0000000E+000	0.0000000E+000	21.0007	2.60499	68.9993	6.61418e-07	-6.01817e-06	-1.43097e-10	-6.01803e-06	3.88674	2.51031e+06	59.6889	2.51025e+06
158486	0.864165	0.428805	0.964705	-26.3909	5.28553	3.88668	-0.0228867	2.3419	0.4627	1	9	0.0051188	0.00530608	0	2.73462e-05	-0.00021304	6.46726e-05	75.2331	0.0121884	0.00310666	-0.0117858	-25.6801	0.962323	0.867272	0.417019	0.928556	0.460756	1.03659	26.3909	462.7	932.474	1040.96	-63.6091	0.0000000E+000	0.0000000E+000	0.0000000E+000	63.6091	0.0000000E+000	0.0000000E+000	0.0000000E+000	-63.6091	0.0000000E+000	0.0000000E+000	0.0000000E+000	-26.3909	0.0000000E+000	0.0000000E+000	0.0000000E+000	26.3909	2.01529	63.6091	1.54484e-06	-8.89533e-05	4.87579e-09	-8.89581e-05	3.88689	169823	9.30847	169832
100004	1.03257	0.542534	1.16643	-27.7183	6.05152	3.88658	-0.0361441	2.93344	0.634624	1	9	0.00536714	0.00460135	0	1.4842e-05	5.42368e-05	4.549e-05	67.7745	0.00988622	0.00373949	-0.0091517	-27.2346	1.16552	1.03631	0.533383	0.758937	0.398761	0.857319	27.7183	634.624	1207.84	1364.42	-62.2817	0.0000000E+000	0.0000000E+000	0.0000000E+000	62.2817	0.0000000E+000	0.0000000E+000	0.0000000E+000	-62.2817	0.0000000E+000	0.0000000E+000	0.0000000E+000	-27.7183	0.0000000E+000	0.0000000E+000	0.0000000E+000	27.7183	1.90324	62.2817	9.33106e-06	-0.000140477	-1.96034e-09	-0.000140475	3.88653	107530	1.50057	107529
63093.8	1.25067	0.630379	1.40056	-26.7496	6.81756	3.88656	-0.0337235	4.00158	0.810651	1	9	0.0053024	0.00378593	0	-9.11877e-06	-3.03681e-06	2.35294e-05	68.8067	0.00621498	0.00224681	-0.00579463	-26.4964	1.39997	1.25292	0.624584	0.637591	0.321366	0.714002	26.7496	810.651	1608.33	1801.08	-63.2504	0.0000000E+000	0.0000000E+000	0.0000000E+000	63.2504	0.0000000E+000	0.0000000E+000	0.0000000E+000	-63.2504	0.0000000E+000	0.0000000E+000	0.0000000E+000	-26.7496	0.0000000E+000	0.0000000E+000	0.0000000E+000	26.7496	1.984	63.2504	-9.71697e-06	-0.000131069	1.02412e-10	-0.000131069	3.88657	115248	0.0900502	115248
39814.1	1.49287	0.664063	1.6339	-23.9807	7.58353	3.88656	-0.0338353	6.01969	0.994356	1	9	0.00524051	0.00320736	0	-1.35589e-05	-0.000270314	1.35071e-05	22.7197	0.00421129	0.00388452	-0.0016265	-23.8734	1.63679	1.49675	0.662437	0.559204	0.248747	0.612032	23.9807	994.356	2235.39	2446.57	-66.0193	0.0000000E+000	0.0000000E+000	0.0000000E+000	66.0193	0.0000000E+000	0.0000000E+000	0.0000000E+000	-66.0193	0.0000000E+000	0.0000000E+000	0.0000000E+000	-23.9807	0.0000000E+000	0.0000000E+000	0.0000000E+000	23.9807	2.24808	66.0193	1.25735e-06	-0.000131503	9.14614e-09	-0.000131512	3.88683	114867	7.98912	114875
25116.9	1.71638	0.643635	1.83309	-20.5559	8.34956	3.88656	-0.030074	9.84497	1.21374	1	9	0.00521446	0.00284463	0	-1.09402e-05	0.00011151	1.18056e-05	6.41483	0.00415015	0.00412417	-0.00046368	-20.4971	1.83679	1.7205	0.643171	0.510794	0.191546	0.545527	20.5559	1213.74	3236.68	3456.77	-69.4441	0.0000000E+000	0.0000000E+000	0.0000000E+000	69.4441	0.0000000E+000	0.0000000E+000	0.0000000E+000	-69.4441	0.0000000E+000	0.0000000E+000	0.0000000E+000	-20.5559	0.0000000E+000	0.0000000E+000	0.0000000E+000	20.5559	2.66669	69.4441	-1.32392e-06	-0.000116885	-3.35357e-09	-0.000116881	3.88645	129233	3.70786	129229
15847.7	1.90584	0.606428	2	-17.6508	9.11554	3.88655	-0.0296272	16.5606	1.52256	1	9	0.00513571	0.00256786	0	-1.91836e-05	-7.94017e-05	9.53398e-06	41.2954	0.00371282	0.0027895	-0.00245024	-17.5597	2.00191	1.90863	0.603977	0.476462	0.151607	0.500001	17.6508	1522.56	4785.01	5021.4	-72.3492	0.0000000E+000	0.0000000E+000	0.0000000E+000	72.3492	0.0000000E+000	0.0000000E+000	0.0000000E+000	-72.3492	0.0000000E+000	0.0000000E+000	0.0000000E+000	-17.6508	0.0000000E+000	0.0000000E+000	0.0000000E+000	17.6508	3.14274	72.3492	-1.85582e-06	-0.000115147	2.35245e-09	-0.00011515	3.88663	131182	2.68003	131185
10002.2	2.06622	0.581135	2.14639	-15.7089	9.88154	3.88656	-0.0285472	27.3808	2.00717	1	9	0.00502773	0.00234241	0	-2.4572e-05	3.51456e-05	4.87764e-06	-43.9504	0.00208232	0.00149914	0.0014452	-15.7352	2.14823	2.06772	0.582581	0.448497	0.126142	0.465898	15.7089	2007.17	7136.46	7413.35	-74.2911	0.0000000E+000	0.0000000E+000	0.0000000E+000	74.2911	0.0000000E+000	0.0000000E+000	0.0000000E+000	-74.2911	0.0000000E+000	0.0000000E+000	0.0000000E+000	-15.7089	0.0000000E+000	0.0000000E+000	0.0000000E+000	15.7089	3.55549	74.2911	-1.46042e-06	-0.000110951	-1.00331e-09	-0.00011095	3.88653	136145	1.23114	136144
6309.38	2.20585	0.575413	2.27967	-14.6202	10.5235	3.88655	-0.029441	43.8383	2.79299	1	9	0.00549638	0.00241104	0	-2.59852e-05	1.60544e-05	7.88099e-06	-35.5425	0.00326871	0.00265969	0.00190012	-14.6495	2.28272	2.20851	0.577313	0.424456	0.110722	0.43866	14.6202	2792.99	10707	11065.3	-75.3798	0.0000000E+000	0.0000000E+000	0.0000000E+000	75.3798	0.0000000E+000	0.0000000E+000	0.0000000E+000	-75.3798	0.0000000E+000	0.0000000E+000	0.0000000E+000	-14.6202	0.0000000E+000	0.0000000E+000	0.0000000E+000	14.6202	3.83352	75.3798	-2.2782e-07	-0.000114424	-4.72657e-10	-0.000114423	3.88654	132012	0.545308	132011
3983.6	2.3441	0.587622	2.41663	-14.073	11.2121	3.88651	-0.0184552	67.9902	4.01998	1	9	0.00520971	0.00215578	0	-3.28916e-05	0.000187875	1.00541e-05	-96.7474	0.00466378	-0.000547954	0.00463148	-14.1827	2.41723	2.34355	0.592254	0.40138	0.100619	0.4138	14.073	4019.98	16036.2	16532.4	-75.927	0.0000000E+000	0.0000000E+000	0.0000000E+000	75.927	0.0000000E+000	0.0000000E+000	0.0000000E+000	-75.927	0.0000000E+000	0.0000000E+000	0.0000000E+000	-14.073	0.0000000E+000	0.0000000E+000	0.0000000E+000	14.073	3.98912	75.927	-3.37771e-06	-7.17264e-05	-3.46729e-09	-7.1723e-05	3.88632	210591	10.18	210581
2510.8	2.49678	0.652226	2.58057	-14.64	12.0368	3.8865	-0.025866	97.1873	6.20833	1	9	0.00527039	0.00204234	0	-4.38983e-05	0.000149693	1.32811e-05	100.896	0.00650288	-0.00122918	-0.00638566	-14.5096	2.57777	2.49556	0.64584	0.37493	0.0979416	0.387512	14.64	6208.33	23766.1	24563.6	-75.36	0.0000000E+000	0.0000000E+000	0.0000000E+000	75.36	0.0000000E+000	0.0000000E+000	0.0000000E+000	-75.36	0.0000000E+000	0.0000000E+000	0.0000000E+000	-14.64	0.0000000E+000	0.0000000E+000	0.0000000E+000	14.64	3.8281	75.36	-3.64996e-06	-0.000100528	-3.87195e-09	-0.000100524	3.88635	150255	5.78725	150249
1585.51	2.66202	0.74404	2.76404	-15.6158	12.9388	3.88651	-0.0272438	134.914	9.77595	1	9	0.00525179	0.00190004	0	-5.1635e-05	9.24193e-05	9.52771e-06	-63.8358	0.00501448	0.00221111	0.00450067	-15.6932	2.76738	2.66423	0.74854	0.348435	0.0973884	0.361789	15.6158	9775.95	34976.3	36316.8	-74.3842	0.0000000E+000	0.0000000E+000	0.0000000E+000	74.3842	0.0000000E+000	0.0000000E+000	0.0000000E+000	-74.3842	0.0000000E+000	0.0000000E+000	0.0000000E+000	-15.6158	0.0000000E+000	0.0000000E+000	0.0000000E+000	15.6158	3.57779	74.3842	-3.6528e-06	-0.000105883	-2.51786e-09	-0.000105881	3.88642	142656	3.3923	142653
1000.32	2.89304	0.868759	3.02066	-16.7146	13.8408	3.88651	-0.0288079	183.139	15.1487	1	9	0.00521078	0.00172505	0	-5.84345e-05	-6.03105e-05	1.20222e-05	-152.429	0.00696922	-0.00617779	0.00322567	-16.8071	3.01568	2.88686	0.871984	0.317066	0.0952125	0.331053	16.7146	15148.7	50446.4	52671.8	-73.2854	0.0000000E+000	0.0000000E+000	0.0000000E+000	73.2854	0.0000000E+000	0.0000000E+000	0.0000000E+000	-73.2854	0.0000000E+000	0.0000000E+000	0.0000000E+000	-16.7146	0.0000000E+000	0.0000000E+000	0.0000000E+000	16.7146	3.33008	73.2854	-1.78619e-06	-0.000111962	1.73742e-09	-0.000111964	3.88657	134911	2.09354	134913
631.01	3.13995	1.00014	3.29538	-17.6677	14.9876	3.88651	-0.0399357	252.188	23.2291	1	10	0.00522938	0.00158688	0	-6.63357e-05	-0.000193949	1.07424e-06	152.887	0.000676953	-0.000602564	-0.000308515	-17.6658	3.29472	3.13935	0.999828	0.289142	0.0920974	0.303455	17.6677	23229.1	72928.1	76538.2	-72.3323	0.0000000E+000	0.0000000E+000	0.0000000E+000	72.3323	0.0000000E+000	0.0000000E+000	0.0000000E+000	-72.3323	0.0000000E+000	0.0000000E+000	0.0000000E+000	-17.6677	0.0000000E+000	0.0000000E+000	0.0000000E+000	17.6677	3.13952	72.3323	-3.69032e-06	-0.000155211	7.74549e-09	-0.000155218	3.88671	97319.3	4.85653	97324.1
398.089	3.48659	1.1241	3.66332	-17.8697	15.8888	3.88652	-0.0390644	355.66	33.4885	1	10	0.00518295	0.00141482	0	-7.54929e-05	0.000168784	1.22796e-05	112.147	0.00867926	-0.00327191	-0.00803892	-17.7656	3.65774	3.48332	1.11606	0.259807	0.0837637	0.272977	17.8697	33488.5	103870	109135	-72.1303	0.0000000E+000	0.0000000E+000	0.0000000E+000	72.1303	0.0000000E+000	0.0000000E+000	0.0000000E+000	-72.1303	0.0000000E+000	0.0000000E+000	0.0000000E+000	-17.8697	0.0000000E+000	0.0000000E+000	0.0000000E+000	17.8697	3.10167	72.1303	-3.8172e-06	-0.000151825	-6.59346e-09	-0.000151818	3.88635	99489.9	4.32066	99485.6
251.044	3.92385	1.2071	4.10533	-17.0996	16.787	3.88652	-0.0391463	525.202	45.4065	1	10	0.00516994	0.00125933	0	-8.59094e-05	1.60544e-05	6.69342e-06	-24.8954	0.00531508	0.00482119	0.00223746	-17.1096	4.11059	3.92867	1.20934	0.232818	0.0716223	0.243586	17.0996	45406.5	147600	154427	-72.9005	0.0000000E+000	0.0000000E+000	0.0000000E+000	72.9005	0.0000000E+000	0.0000000E+000	0.0000000E+000	-72.9005	0.0000000E+000	0.0000000E+000	0.0000000E+000	-17.0996	0.0000000E+000	0.0000000E+000	0.0000000E+000	17.0996	3.25064	72.9005	-4.57422e-06	-0.000152143	-6.28471e-10	-0.000152142	3.8865	99281.8	0.410113	99281.4
158.428	4.37239	1.18603	4.5304	-15.1765	17.6919	3.88652	-0.0382751	847.015	58.0511	1	10	0.00514795	0.00113631	0	-9.6335e-05	0.000283331	1.46663e-05	-43.4093	0.0129069	0.00937642	0.00886972	-15.2536	4.54177	4.38177	1.1949	0.213033	0.0577861	0.220731	15.1765	58051.1	214010	221743	-74.8235	0.0000000E+000	0.0000000E+000	0.0000000E+000	74.8235	0.0000000E+000	0.0000000E+000	0.0000000E+000	-74.8235	0.0000000E+000	0.0000000E+000	0.0000000E+000	-15.1765	0.0000000E+000	0.0000000E+000	0.0000000E+000	15.1765	3.68658	74.8235	-4.84235e-06	-0.000148757	-1.08445e-08	-0.000148746	3.88623	101542	7.40251	101534
100.032	4.7787	1.03657	4.88983	-12.2387	18.5909	3.88652	-0.0365027	1534.91	68.9749	1	10	0.00513534	0.00105021	0	-0.000105739	0.00026424	1.27263e-05	-19.2368	0.0121179	0.0114413	0.00399253	-12.2559	4.90186	4.79014	1.04056	0.199858	0.0433521	0.204506	12.2387	68974.9	317983	325378	-77.7613	0.0000000E+000	0.0000000E+000	0.0000000E+000	77.7613	0.0000000E+000	0.0000000E+000	0.0000000E+000	-77.7613	0.0000000E+000	0.0000000E+000	0.0000000E+000	-12.2387	0.0000000E+000	0.0000000E+000	0.0000000E+000	12.2387	4.61012	77.7613	-5.8411e-06	-0.000141868	-9.64549e-09	-0.000141859	3.88625	106472	7.23892	106465
63.0823	5.08812	0.844845	5.15778	-9.42753	19.5079	3.88652	-0.0350767	2986.31	80.1241	1	10	0.00513165	0.000994934	0	-0.000114616	3.51456e-05	5.15722e-06	-120.354	0.00518348	-0.00261943	0.00447292	-9.48133	5.15594	5.0855	0.849318	0.191263	0.0317578	0.193882	9.42753	80124.1	482552	489158	-80.5725	0.0000000E+000	0.0000000E+000	0.0000000E+000	80.5725	0.0000000E+000	0.0000000E+000	0.0000000E+000	-80.5725	0.0000000E+000	0.0000000E+000	0.0000000E+000	-9.42753	0.0000000E+000	0.0000000E+000	0.0000000E+000	9.42753	6.02255	80.5725	-4.48946e-06	-0.000136326	-1.23279e-09	-0.000136325	3.88649	110801	1.00197	110800
39.8089	5.31612	0.633271	5.35371	-6.79322	20.4088	3.88651	-0.0365325	6313.21	88.3324	1	10	0.00515346	0.000962595	0	-0.000121586	0.00011151	2.65079e-05	31.9547	0.0275379	0.023365	-0.0145744	-6.60949	5.37521	5.33949	0.618697	0.185475	0.0220943	0.186786	6.79322	88332.3	741524	746767	-83.2068	0.0000000E+000	0.0000000E+000	0.0000000E+000	83.2068	0.0000000E+000	0.0000000E+000	0.0000000E+000	-83.2068	0.0000000E+000	0.0000000E+000	0.0000000E+000	-6.79322	0.0000000E+000	0.0000000E+000	0.0000000E+000	6.79322	8.39471	83.2068	-3.49895e-06	-0.000141984	-4.07376e-09	-0.00014198	3.8864	106385	3.05236	106382
25.1044	5.42978	0.48384	5.4513	-5.0921	21.2881	3.88651	-0.0366591	13102.9	103.222	1	10	0.00512806	0.000940705	0	-0.0001298	0.000130602	8.05892e-06	-30.0201	0.00856689	0.00741764	0.00428606	-5.12999	5.45907	5.4372	0.488126	0.182719	0.0162818	0.183443	5.0921	103222	1.15838e+06	1.16297e+06	-84.9079	0.0000000E+000	0.0000000E+000	0.0000000E+000	84.9079	0.0000000E+000	0.0000000E+000	0.0000000E+000	-84.9079	0.0000000E+000	0.0000000E+000	0.0000000E+000	-5.0921	0.0000000E+000	0.0000000E+000	0.0000000E+000	5.0921	11.2223	84.9079	-5.21038e-06	-0.000142476	-4.78774e-09	-0.000142471	3.88638	106018	3.5626	106014
15.8576	5.50987	0.346079	5.52072	-3.59407	22.166	3.88652	-0.0389974	29000.7	113.964	1	10	0.0051252	0.000928357	0	-0.000133163	0.000130602	2.48895e-05	-2.06052	0.0268103	0.026793	0.000963968	-3.58666	5.54752	5.53666	0.347043	0.180779	0.0113549	0.181136	3.59407	113964	1.8144e+06	1.81797e+06	-86.4059	0.0000000E+000	0.0000000E+000	0.0000000E+000	86.4059	0.0000000E+000	0.0000000E+000	0.0000000E+000	-86.4059	0.0000000E+000	0.0000000E+000	0.0000000E+000	-3.59407	0.0000000E+000	0.0000000E+000	0.0000000E+000	3.59407	15.9208	86.4059	-4.42366e-07	-0.000151564	-5.09313e-09	-0.000151559	3.88639	99661	3.34898	99657.6
10.0032	5.56415	0.275762	5.57098	-2.83728	23.1468	3.88651	-0.0360187	57696.2	141.368	1	10	0.00512898	0.000920661	0	-0.000147831	-0.000117584	1.3115e-05	53.6479	0.0142452	0.00844377	-0.0114729	-2.7153	5.57886	5.57259	0.264289	0.179282	0.00888527	0.179502	2.83728	141368	2.85244e+06	2.85594e+06	-87.1627	0.0000000E+000	0.0000000E+000	0.0000000E+000	87.1627	0.0000000E+000	0.0000000E+000	0.0000000E+000	-87.1627	0.0000000E+000	0.0000000E+000	0.0000000E+000	-2.83728	0.0000000E+000	0.0000000E+000	0.0000000E+000	2.83728	20.1774	87.1627	-9.1006e-06	-0.000139987	4.23523e-09	-0.000139991	3.88663	107903	3.26453	107906
6.31058	5.60549	0.222484	5.6099	-2.2729	24.0703	3.8865	-0.0417714	113358	178.295	1	10	0.00513106	0.000914643	0	-0.000150206	0.000206967	1.0579e-05	-37.2117	0.0115663	0.00921145	0.00699483	-2.34043	5.61939	5.6147	0.229479	0.178116	0.00706948	0.178256	2.2729	178295	4.49214e+06	4.49568e+06	-87.7271	0.0000000E+000	0.0000000E+000	0.0000000E+000	87.7271	0.0000000E+000	0.0000000E+000	0.0000000E+000	-87.7271	0.0000000E+000	0.0000000E+000	0.0000000E+000	-2.2729	0.0000000E+000	0.0000000E+000	0.0000000E+000	2.2729	25.195	87.7271	-2.88532e-06	-0.000162344	-8.64527e-09	-0.000162336	3.88629	93042.2	4.95475	93037.2
3.97785	5.63595	0.200387	5.63951	-2.0363	25.0773	3.88654	-0.0328128	199665	252.092	1	10	0.00513162	0.00090994	0	-0.000167624	5.42368e-05	7.04872e-06	54.4336	0.00774635	0.00450564	-0.0063012	-1.97075	5.64379	5.64045	0.194086	0.177208	0.00630067	0.17732	2.0363	252092	7.09016e+06	7.09464e+06	-87.9637	0.0000000E+000	0.0000000E+000	0.0000000E+000	87.9637	0.0000000E+000	0.0000000E+000	0.0000000E+000	-87.9637	0.0000000E+000	0.0000000E+000	0.0000000E+000	-2.0363	0.0000000E+000	0.0000000E+000	0.0000000E+000	2.0363	28.1253	87.9637	-3.39453e-06	-0.000127528	-1.77966e-09	-0.000127527	3.88649	118446	1.65292	118444
2.51367	5.67098	0.202083	5.67457	-2.04085	26.6369	3.88654	-0.0282777	313314	397.352	1	10	0.00513561	0.000905022	0	-0.000162066	0.000187875	6.32853e-06	13.9647	0.00699269	0.00678602	-0.0016875	-2.02141	5.6813	5.67776	0.200396	0.176113	0.00627573	0.176225	2.04085	397352	1.11507e+07	1.11578e+07	-87.9591	0.0000000E+000	0.0000000E+000	0.0000000E+000	87.9591	0.0000000E+000	0.0000000E+000	0.0000000E+000	-87.9591	0.0000000E+000	0.0000000E+000	0.0000000E+000	-2.04085	0.0000000E+000	0.0000000E+000	0.0000000E+000	2.04085	28.0625	87.9591	-4.24377e-07	-0.000109902	-5.31268e-09	-0.000109897	3.88635	137442	6.64394	137435
1.58469	5.71181	0.22701	5.71632	-2.27596	29.6175	3.88654	-0.0269953	442418	697.732	1	11	0.00512993	0.000897419	0	-0.000213507	0.000187875	2.65641e-06	-47.9496	0.00296005	0.0019826	0.00219801	-2.29718	5.71839	5.71379	0.229208	0.1748	0.00694723	0.174938	2.27596	697732	1.75557e+07	1.75695e+07	-87.724	0.0000000E+000	0.0000000E+000	0.0000000E+000	87.724	0.0000000E+000	0.0000000E+000	0.0000000E+000	-87.724	0.0000000E+000	0.0000000E+000	0.0000000E+000	-2.27596	0.0000000E+000	0.0000000E+000	0.0000000E+000	2.27596	25.1611	87.724	-2.64646e-05	-0.000104918	-5.07175e-09	-0.000104913	3.88635	143971	6.95955	143964
1.00469	5.78209	0.25335	5.78764	-2.50889	240.436	3.88652	-0.0251649	625267	1198.13	1	11	0.00507484	0.000876842	0	-0.00514006	-0.000117584	6.89793e-07	-3.9694	0.000786679	0.000784792	5.44568e-05	-2.50908	5.78842	5.78287	0.253404	0.172616	0.00756342	0.172782	2.50889	1.19813e+06	2.73444e+07	2.73707e+07	-87.4911	0.0000000E+000	0.0000000E+000	0.0000000E+000	87.4911	0.0000000E+000	0.0000000E+000	0.0000000E+000	-87.4911	0.0000000E+000	0.0000000E+000	0.0000000E+000	-2.50889	0.0000000E+000	0.0000000E+000	0.0000000E+000	2.50889	22.8225	87.4911	-0.00491257	-9.78041e-05	2.959e-09	-9.78071e-05	3.88664	154442	4.67254	154447
0.632957	5.84477	0.310677	5.85302	-3.04268	240.436	3.88652	-0.0251649	809350	2280.32	1	11	0.0050894	0.000869534	0	-0.00514006	-0.000117584	9.13245e-07	-9.43602	0.00105027	0.00103606	0.000172188	-3.04382	5.85406	5.8458	0.310849	0.170611	0.0090688	0.170852	3.04268	2.28032e+06	4.28996e+07	4.29602e+07	-86.9573	0.0000000E+000	0.0000000E+000	0.0000000E+000	86.9573	0.0000000E+000	0.0000000E+000	0.0000000E+000	-86.9573	0.0000000E+000	0.0000000E+000	0.0000000E+000	-3.04268	0.0000000E+000	0.0000000E+000	0.0000000E+000	3.04268	18.813	86.9573	0.000000000000000E+000	-9.78041e-05	2.959e-09	-9.78071e-05	3.88664	154442	4.67254	154447
0.401878	5.90407	0.38387	5.91653	-3.72001	240.437	3.88652	-0.0251649	1.03167e+06	4342.86	1	11	0.00510259	0.000862428	0	-0.00514006	-0.000117584	6.77056e-07	-9.32381	0.000785058	0.000774686	0.00012719	-3.72076	5.91731	5.90484	0.383997	0.168662	0.010966	0.169018	3.72001	4.34286e+06	6.67949e+07	6.69359e+07	-86.28	0.0000000E+000	0.0000000E+000	0.0000000E+000	86.28	0.0000000E+000	0.0000000E+000	0.0000000E+000	-86.28	0.0000000E+000	0.0000000E+000	0.0000000E+000	-3.72001	0.0000000E+000	0.0000000E+000	0.0000000E+000	3.72001	15.3804	86.28	0.000000000000000E+000	-9.78041e-05	2.959e-09	-9.78071e-05	3.88664	154442	4.67254	154447
0.251173	6.00126	0.503945	6.02238	-4.80005	240.437	3.88652	-0.0251649	1.25737e+06	8804.26	1	11	0.00510565	0.000847779	0	-0.00514006	-0.000117584	6.57725e-07	2.25706	0.000775822	0.00077522	-3.05541e-05	-4.79914	6.02315	6.00203	0.503914	0.165465	0.0138946	0.166047	4.80005	8.80426e+06	1.04846e+08	1.05215e+08	-85.2	0.0000000E+000	0.0000000E+000	0.0000000E+000	85.2	0.0000000E+000	0.0000000E+000	0.0000000E+000	-85.2	0.0000000E+000	0.0000000E+000	0.0000000E+000	-4.80005	0.0000000E+000	0.0000000E+000	0.0000000E+000	4.80005	11.9086	85.2	0.000000000000000E+000	-9.78041e-05	2.959e-09	-9.78071e-05	3.88664	154442	4.67254	154447
0.160751	6.13186	0.572313	6.15851	-5.33222	240.438	3.88652	-0.0251649	1.72995e+06	14939.9	1	11	0.00509554	0.000827398	0	-0.00514006	-0.000117584	4.99111e-07	-9.60259	0.000603229	0.000594777	0.000100627	-5.33263	6.15911	6.13246	0.572414	0.161674	0.0150898	0.162377	5.33222	1.49399e+07	1.60069e+08	1.60765e+08	-84.6678	0.0000000E+000	0.0000000E+000	0.0000000E+000	84.6678	0.0000000E+000	0.0000000E+000	0.0000000E+000	-84.6678	0.0000000E+000	0.0000000E+000	0.0000000E+000	-5.33222	0.0000000E+000	0.0000000E+000	0.0000000E+000	5.33222	10.7142	84.6678	0.000000000000000E+000	-9.78041e-05	2.959e-09	-9.78071e-05	3.88664	154442	4.67254	154447
0.100469	6.24152	0.799219	6.29248	-7.29694	240.438	3.88652	-0.0251649	1.98208e+06	31974.8	1	11	0.00509895	0.000810324	0	-0.00514006	-0.000117584	7.08578e-07	-16.2729	0.000874438	0.000839406	0.000245029	-7.29818	6.29335	6.24236	0.799464	0.157633	0.0201847	0.15892	7.29694	3.19748e+07	2.49708e+08	2.51747e+08	-82.7031	0.0000000E+000	0.0000000E+000	0.0000000E+000	82.7031	0.0000000E+000	0.0000000E+000	0.0000000E+000	-82.7031	0.0000000E+000	0.0000000E+000	0.0000000E+000	-7.29694	0.0000000E+000	0.0000000E+000	0.0000000E+000	7.29694	7.80953	82.7031	0.000000000000000E+000	-9.78041e-05	2.959e-09	-9.78071e-05	3.88664	154442	4.67254	154447
0.0602816	6.47534	1.01026	6.55368	-8.86756	240.438	3.88652	-0.0251649	2.61339e+06	62100.7	1	11	0.00509441	0.000777336	0	-0.00514006	-0.000117584	6.637e-07	-26.4053	0.000853814	0.000764736	0.000379707	-8.8698	6.55449	6.47611	1.01063	0.150762	0.0235213	0.152586	8.86756	6.21007e+07	3.98041e+08	4.02856e+08	-81.1324	0.0000000E+000	0.0000000E+000	0.0000000E+000	81.1324	0.0000000E+000	0.0000000E+000	0.0000000E+000	-81.1324	0.0000000E+000	0.0000000E+000	0.0000000E+000	-8.86756	0.0000000E+000	0.0000000E+000	0.0000000E+000	8.86756	6.40961	81.1324	0.000000000000000E+000	-9.78041e-05	2.959e-09	-9.78071e-05	3.88664	154442	4.67254	154447
0.0401878	6.75271	1.2467	6.86683	-10.4603	240.439	3.88652	-0.0251649	3.17661e+06	104707	1	11	0.0050951	0.000741988	0	-0.00514006	-0.000117584	6.0359e-07	-73.0497	0.000813476	0.000237162	0.000778137	-10.4663	6.8672	6.75295	1.24748	0.143207	0.0264393	0.145628	10.4603	1.04707e+08	5.67142e+08	5.76727e+08	-79.5397	0.0000000E+000	0.0000000E+000	0.0000000E+000	79.5397	0.0000000E+000	0.0000000E+000	0.0000000E+000	-79.5397	0.0000000E+000	0.0000000E+000	0.0000000E+000	-10.4603	0.0000000E+000	0.0000000E+000	0.0000000E+000	10.4603	5.41647	79.5397	0.000000000000000E+000	-9.78041e-05	2.959e-09	-9.78071e-05	3.88664	154442	4.67254	154447
0.0200939	7.48941	1.93523	7.7354	-14.4881	240.439	3.88652	-0.0251649	4.09283e+06	256168	1	11	0.0050979	0.000659035	0	-0.00514006	-0.000117584	1.40266e-06	-21.7706	0.00212835	0.00197655	0.000789386	-14.4901	7.73751	7.49139	1.93602	0.125165	0.0323421	0.129276	14.4881	2.56168e+08	9.91377e+08	1.02394e+09	-75.5119	0.0000000E+000	0.0000000E+000	0.0000000E+000	75.5119	0.0000000E+000	0.0000000E+000	0.0000000E+000	-75.5119	0.0000000E+000	0.0000000E+000	0.0000000E+000	-14.4881	0.0000000E+000	0.0000000E+000	0.0000000E+000	14.4881	3.87003	75.5119	0.000000000000000E+000	-9.78041e-05	2.959e-09	-9.78071e-05	3.88664	154442	4.67254	154447
0.00796479	8.4651	2.32244	8.77791	-15.3419	20329.3	3.88653	0.00147826	8.60402e+06	602294	1	11	0.00508851	0.000579695	0	-0.0603342	0.000187875	1.37445e-07	-41.0245	0.000237099	0.000178874	0.000155627	-15.3425	8.77812	8.46528	2.3226	0.109863	0.0301414	0.113922	15.3419	6.02294e+08	2.19531e+09	2.27643e+09	-74.6581	0.0000000E+000	0.0000000E+000	0.0000000E+000	74.6581	0.0000000E+000	0.0000000E+000	0.0000000E+000	-74.6581	0.0000000E+000	0.0000000E+000	0.0000000E+000	-15.3419	0.0000000E+000	0.0000000E+000	0.0000000E+000	15.3419	3.64492	74.6581	-0.0551941	5.74529e-06	2.77728e-10	5.74501e-06	3.88634	2.62912e+06	127.092	2.629e+06
0.00497799	9.16847	2.3987	9.47705	-14.6614	20329.3	3.88653	0.00147826	1.33288e+07	853876	1	11	0.00509681	0.000537805	0	-0.0603342	0.000187875	3.7545e-07	-78.7922	0.000698115	0.000135691	0.000684801	-14.6652	9.47736	9.1686	2.39938	0.102082	0.0267072	0.105518	14.6614	8.53876e+08	3.26374e+09	3.37359e+09	-75.3386	0.0000000E+000	0.0000000E+000	0.0000000E+000	75.3386	0.0000000E+000	0.0000000E+000	0.0000000E+000	-75.3386	0.0000000E+000	0.0000000E+000	0.0000000E+000	-14.6614	0.0000000E+000	0.0000000E+000	0.0000000E+000	14.6614	3.82227	75.3386	0.000000000000000E+000	5.74529e-06	2.77728e-10	5.74501e-06	3.88634	2.62912e+06	127.092	2.629e+06
0.00318591	9.68153	3.22023	10.203	-18.3979	20329.3	3.88653	0.00147826	1.55131e+07	1.54531e+06	1	11	0.00509983	0.000499835	0	-0.0603342	0.000187875	3.34722e-07	-133.457	0.000669666	-0.000460599	0.000486108	-18.4013	10.2027	9.68106	3.22071	0.0930006	0.0309335	0.0980101	18.3979	1.54531e+09	4.64592e+09	4.89617e+09	-71.6021	0.0000000E+000	0.0000000E+000	0.0000000E+000	71.6021	0.0000000E+000	0.0000000E+000	0.0000000E+000	-71.6021	0.0000000E+000	0.0000000E+000	0.0000000E+000	-18.3979	0.0000000E+000	0.0000000E+000	0.0000000E+000	18.3979	3.00647	71.6021	0.000000000000000E+000	5.74529e-06	2.77728e-10	5.74501e-06	3.88634	2.62912e+06	127.092	2.629e+06
0.0019912	10.0397	3.90563	10.7726	-21.257	20329.3	3.88653	0.00147826	2.04651e+07	2.69002e+06	1	11	0.00509989	0.000473413	0	-0.0603342	0.000187875	3.11986e-07	-46.8122	0.000659014	0.000451024	0.000480497	-21.2585	10.7732	10.0401	3.90611	0.0865123	0.033655	0.092828	21.257	2.69002e+09	6.91487e+09	7.41968e+09	-68.743	0.0000000E+000	0.0000000E+000	0.0000000E+000	68.743	0.0000000E+000	0.0000000E+000	0.0000000E+000	-68.743	0.0000000E+000	0.0000000E+000	0.0000000E+000	-21.257	0.0000000E+000	0.0000000E+000	0.0000000E+000	21.257	2.57057	68.743	0.000000000000000E+000	5.74529e-06	2.77728e-10	5.74501e-06	3.88634	2.62912e+06	127.092	2.629e+06
0.00129428	9.73035	5.12796	10.9989	-27.7895	20329.4	3.88653	0.00147826	2.39799e+07	5.21242e+06	1	11	0.00510134	0.000463804	0	-0.0603342	0.000187875	3.54872e-07	17.4988	0.000765132	0.000729724	-0.000230064	-27.7867	10.9994	9.73108	5.12773	0.0804323	0.0423883	0.0909182	27.7895	5.21242e+09	9.89061e+09	1.118e+10	-62.2105	0.0000000E+000	0.0000000E+000	0.0000000E+000	62.2105	0.0000000E+000	0.0000000E+000	0.0000000E+000	-62.2105	0.0000000E+000	0.0000000E+000	0.0000000E+000	-27.7895	0.0000000E+000	0.0000000E+000	0.0000000E+000	27.7895	1.89751	62.2105	0.000000000000000E+000	5.74529e-06	2.77728e-10	5.74501e-06	3.88634	2.62912e+06	127.092	2.629e+06
0.000796479	10.8148	7.40915	13.1094	-34.4147	20329.4	3.88653	0.00147826	2.69698e+07	8.61489e+06	1	11	0.00510143	0.000389143	0	-0.0603342	0.000187875	7.72451e-07	12.29	0.00198501	0.00193952	-0.000422527	-34.4084	13.1107	10.8168	7.40873	0.0629296	0.0431125	0.0762812	34.4147	8.61489e+09	1.25748e+10	1.52428e+10	-55.5853	0.0000000E+000	0.0000000E+000	0.0000000E+000	55.5853	0.0000000E+000	0.0000000E+000	0.0000000E+000	-55.5853	0.0000000E+000	0.0000000E+000	0.0000000E+000	-34.4147	0.0000000E+000	0.0000000E+000	0.0000000E+000	34.4147	1.45966	55.5853	0.000000000000000E+000	5.74529e-06	2.77728e-10	5.74501e-06	3.88634	2.62912e+06	127.092	2.629e+06
0.000497799	10.6153	10.5485	14.9651	-44.8193	20329.4	3.88653	0.00147826	3.03092e+07	1.5059e+07	1	11	0.00510021	0.000340806	0	-0.0603342	0.000187875	3.4858e-07	-117.446	0.00102281	-0.000471431	0.000907685	-44.823	14.9654	10.6148	10.5494	0.0473991	0.047101	0.066822	44.8193	1.5059e+10	1.51543e+10	2.13641e+10	-45.1807	0.0000000E+000	0.0000000E+000	0.0000000E+000	45.1807	0.0000000E+000	0.0000000E+000	0.0000000E+000	-45.1807	0.0000000E+000	0.0000000E+000	0.0000000E+000	-44.8193	0.0000000E+000	0.0000000E+000	0.0000000E+000	44.8193	1.00633	45.1808	0.000000000000000E+000	5.74529e-06	2.77728e-10	5.74501e-06	3.88634	2.62912e+06	127.092	2.629e+06
0.000298679	9.94086	16.4345	19.2071	-58.8312	20329.4	3.88653	0.00147826	3.24233e+07	2.37381e+07	1	11	0.00510192	0.000265626	0	-0.0603342	0.000187875	1.36419e-06	-122.474	0.00513575	-0.00275749	0.00433268	-58.8449	19.2094	9.93811	16.4389	0.0269463	0.0445484	0.052064	58.8312	2.37381e+10	1.43586e+10	2.77429e+10	-31.1688	0.0000000E+000	0.0000000E+000	0.0000000E+000	31.1688	0.0000000E+000	0.0000000E+000	0.0000000E+000	-31.1688	0.0000000E+000	0.0000000E+000	0.0000000E+000	-58.8312	0.0000000E+000	0.0000000E+000	0.0000000E+000	58.8312	0.604877	31.1688	0.000000000000000E+000	5.74529e-06	2.77728e-10	5.74501e-06	3.88634	2.62912e+06	127.092	2.629e+06
9.95598e-05	8.50588	72.1939	72.6933	-83.2804	20329.4	3.88653	0.00147826	2.21429e+07	2.18398e+07	1	11	0.00509926	7.01476e-05	0	-0.0603342	0.000187875	1.25057e-06	-132.496	0.0178277	-0.0120432	0.0131448	-83.291	72.7049	8.49384	72.2071	0.00160965	0.0136619	0.0137564	83.2804	2.18398e+10	2.57316e+09	2.19908e+10	-6.7196	0.0000000E+000	0.0000000E+000	0.0000000E+000	6.7196	0.0000000E+000	0.0000000E+000	0.0000000E+000	-6.7196	0.0000000E+000	0.0000000E+000	0.0000000E+000	-83.2804	0.0000000E+000	0.0000000E+000	0.0000000E+000	83.2804	0.11782	6.7196	0.000000000000000E+000	5.74529e-06	2.77728e-10	5.74501e-06	3.88634	2.62912e+06	127.092	2.629e+06