File: txt/19748_R319_UC100_SOC50_C04.mpt
EC-Lab ASCII FILE
Nb header lines : 65

Potentio Electrochemical Impedance Spectroscopy

Run on channel : 4 (SN 66756)
User :
CE vs. WE compliance from -10 V to 10 V
Electrode connection : standard
Potential control : Ewe
Ewe ctrl range : min = -10.00 V, max = 10.00 V
Safety Limits :
	Do not start on E overload
Acquisition started on : 12/15/2025 16:10:45.892
Technique started on : 12/15/2025 16:10:48.127
Loaded Setting File :  C:\Users\Celltest\OneDrive - store-dot.com\Documents\EC-Lab\Data\@Biologic Test Protocols\cathode half cell EIS SOC50.mps
Saved on :
	File : 19748_R319_UC100_SOC50_C04.mpr
	Directory : C:\Users\Celltest\OneDrive - store-dot.com\Documents\EC-Lab\Data\Michael\
	Host : 169.254.61.224
Device : VMP-3e (SN .003165)
Address : USB
EC-LAB for windows v11.62 (software)
Internet server v27.00 (firmware)
Command interpretor v12.03 (firmware)
Electrode material :
Initial state :
Electrolyte :
Comments :
Electrode surface area : 0.001 cm²
Characteristic mass : 0.001 g
Equivalent Weight : 0.000 g/eq.
Density : 0.000 g/cm3
Volume (V) : 0.001 cm³
Record Ece
Cycle Definition : Charge/Discharge alternance
Mode                Multi sine
E (V)               0.0000
vs.                 Eoc
tE (h:m:s)          0:00:0.0000
record              0
dI                  0.000
unit dI             mA
dt (s)              0.000
fi                  1.000
unit fi             MHz
ff                  0.100
unit ff             mHz
Nd                  10
Points              per decade
spacing             Logarithmic
Va (mV)             5.0
pw                  0.10
Na                  2
corr                0
E range min (V)     -10.000
E range max (V)     10.000
I Range             Auto
Bandwidth           5
nc cycles           0
goto Ns'            0
nr cycles           0
inc. cycle          0

freq/Hz	Re(Z)/Ohm	-Im(Z)/Ohm	|Z|/Ohm	Phase(Z)/deg	time/s	<Ewe>/V	<I>/mA	Cs/µF	Cp/µF	cycle number	I Range	|Ewe|/V	|I|/A	Ns	(Q-Qo)/mA.h	<Ece>/V	|Ece|/V	Phase(Zce)/deg	|Zce|/Ohm	Re(Zce)/Ohm	-Im(Zce)/Ohm	Phase(Zwe-ce)/deg	|Zwe-ce|/Ohm	Re(Zwe-ce)/Ohm	-Im(Zwe-ce)/Ohm	Re(Y)/Ohm-1	Im(Y)/Ohm-1	|Y|/Ohm-1	Phase(Y)/deg	Re(C)/nF	Im(C)/nF	|C|/nF	Phase(C)/deg	Re(M)	Im(M)	|M|	Phase(M)/deg	Re(Permittivity)	Im(Permittivity)	|Permittivity|	Phase(Permittivity)/deg	Re(Resistivity)/Ohm.cm	Im(Resistivity)/Ohm.cm	|Resistivity|/Ohm.cm	Phase(Resistivity)/deg	Re(Conductivity)/mS/cm	Im(Conductivity)/mS/cm	|Conductivity|/mS/cm	Phase(Conductivity)/deg	Tan(Delta)	Loss Angle(Delta)/deg	dq/mA.h	Pwe/W	Pce/W	Pwe-ce/W	<Ewe-Ece>/V	Rwe/Ohm	Rce/Ohm	Rwe-ce/Ohm		Ewe-Ece/V
1.00002e+06	0.901849	-0.57024	1.06701	32.3052	2.23454	3.88126	0.321219	-0.279097	-0.079714	1	9	0.00022158	0.000207665	0	0.000116168	-7.01561e-05	0.000192151	-0.767443	0.925292	0.925209	0.0123934	16.9787	1.91032	1.82706	-0.557846	0.792134	-0.500867	0.937201	-32.3052	-79.714	126.07	149.157	-122.305	0.0000000E+000	0.0000000E+000	0.0000000E+000	122.305	0.0000000E+000	0.0000000E+000	0.0000000E+000	-122.305	0.0000000E+000	0.0000000E+000	0.0000000E+000	32.3052	0.0000000E+000	0.0000000E+000	0.0000000E+000	-32.3052	1.58153	57.6948	0.000116168	0.00124673	-2.25355e-08	0.00124676	3.88133	12082.9	0.218406	12083.1
630957	0.46905	-0.0628666	0.473244	7.63384	3.00054	3.88021	0.135367	-4.01237	-0.070806	1	9	0.000163869	0.000346268	0	0.000148539	-0.000127486	0.000112771	-97.9232	0.325675	-0.0448932	0.322566	-31.478	0.497346	0.424157	0.2597	2.09435	-0.280705	2.11307	-7.63384	-70.806	528.286	533.01	-97.6338	0.0000000E+000	0.0000000E+000	0.0000000E+000	97.6338	0.0000000E+000	0.0000000E+000	0.0000000E+000	-97.6338	0.0000000E+000	0.0000000E+000	0.0000000E+000	7.63384	0.0000000E+000	0.0000000E+000	0.0000000E+000	-7.63384	7.46103	82.3662	1.4194e-05	0.00052525	-1.72573e-08	0.000525267	3.88033	28664.4	0.941784	28665.4
398103	0.611379	0.0548339	0.613833	-5.12508	3.76652	3.88007	0.105193	7.2908	0.0581799	1	9	0.000602748	0.000981942	0	0.000171875	-0.000184816	3.35063e-05	-175.31	0.0341224	-0.0340082	0.00278972	-5.69945	0.580239	0.577371	0.0576236	1.6226	0.145529	1.62911	5.12508	58.1799	648.686	651.29	-84.8749	0.0000000E+000	0.0000000E+000	0.0000000E+000	84.8749	0.0000000E+000	0.0000000E+000	0.0000000E+000	-84.8749	0.0000000E+000	0.0000000E+000	0.0000000E+000	-5.12508	0.0000000E+000	0.0000000E+000	0.0000000E+000	5.12508	11.1497	84.8749	1.06558e-05	0.000408157	-1.94413e-08	0.000408176	3.88026	36885.3	1.75692	36887
251206	0.695738	0.256576	0.741541	-20.2431	4.53554	3.87987	0.0484266	2.4693	0.295621	1	9	0.00193861	0.0026143	0	0.000188603	-0.000184816	3.88681e-05	78.4479	0.0148675	0.00297734	-0.0145663	-19.1043	0.739441	0.698716	0.24201	1.26525	0.466601	1.34854	20.2431	295.621	801.614	854.387	-69.7569	0.0000000E+000	0.0000000E+000	0.0000000E+000	69.7569	0.0000000E+000	0.0000000E+000	0.0000000E+000	-69.7569	0.0000000E+000	0.0000000E+000	0.0000000E+000	-20.2431	0.0000000E+000	0.0000000E+000	0.0000000E+000	20.2431	2.71162	69.7569	5.07419e-06	0.000187889	-8.95e-09	0.000187898	3.88006	80118.6	3.81641	80122.4
158486	0.819968	0.399074	0.911925	-25.9519	5.30154	3.87979	0.0271299	2.51638	0.481908	1	9	0.0050936	0.00558555	0	0.000189241	0.000140053	5.03e-05	71.1754	0.00900538	0.00290578	-0.00852369	-25.3898	0.910851	0.822874	0.39055	0.986004	0.479883	1.09658	25.9519	481.908	990.165	1101.21	-64.0481	0.0000000E+000	0.0000000E+000	0.0000000E+000	64.0481	0.0000000E+000	0.0000000E+000	0.0000000E+000	-64.0481	0.0000000E+000	0.0000000E+000	0.0000000E+000	-25.9519	0.0000000E+000	0.0000000E+000	0.0000000E+000	25.9519	2.05468	64.0481	-1.07221e-06	0.000105259	3.79964e-09	0.000105255	3.87965	143008	5.16232	143003
100004	0.988413	0.485822	1.10136	-26.1749	6.06953	3.87975	0.0711034	3.27587	0.63742	1	9	0.0053299	0.0048394	0	0.000188654	-3.19362e-05	3.27225e-05	87.2258	0.00676168	0.000327269	-0.00675375	-25.8513	1.09869	0.988741	0.479068	0.814861	0.400518	0.907972	26.1749	637.421	1296.84	1445.03	-63.8251	0.0000000E+000	0.0000000E+000	0.0000000E+000	63.8251	0.0000000E+000	0.0000000E+000	0.0000000E+000	-63.8251	0.0000000E+000	0.0000000E+000	0.0000000E+000	-26.1749	0.0000000E+000	0.0000000E+000	0.0000000E+000	26.1749	2.03452	63.8251	9.98542e-06	0.000275864	-2.27077e-09	0.000275866	3.87978	54564.9	0.449151	54565.4
63093.8	1.17365	0.531502	1.28839	-24.364	6.83555	3.87977	0.057378	4.74601	0.807689	1	9	0.00534617	0.0041495	0	0.000176934	-1.28262e-05	3.0542e-05	75.6638	0.00736039	0.00182252	-0.00713118	-24.0414	1.28713	1.17547	0.524371	0.707041	0.320193	0.776164	24.364	807.689	1783.52	1957.88	-65.636	0.0000000E+000	0.0000000E+000	0.0000000E+000	65.636	0.0000000E+000	0.0000000E+000	0.0000000E+000	-65.636	0.0000000E+000	0.0000000E+000	0.0000000E+000	-24.364	0.0000000E+000	0.0000000E+000	0.0000000E+000	24.364	2.20817	65.636	-7.01823e-06	0.000222614	-7.35944e-10	0.000222614	3.87979	67617.8	0.223539	67618
39814.1	1.36025	0.533309	1.46106	-21.4085	7.60156	3.87977	0.0624504	7.49557	0.998676	1	9	0.00538702	0.00368706	0	0.000187706	-1.28262e-05	1.20983e-05	60.672	0.00328128	0.0016072	-0.00286072	-21.2811	1.46152	1.36186	0.530448	0.637209	0.249828	0.684433	21.4085	998.677	2547.21	2735.99	-68.5915	0.0000000E+000	0.0000000E+000	0.0000000E+000	68.5915	0.0000000E+000	0.0000000E+000	0.0000000E+000	-68.5915	0.0000000E+000	0.0000000E+000	0.0000000E+000	-21.4085	0.0000000E+000	0.0000000E+000	0.0000000E+000	21.4085	2.55059	68.5915	-8.08146e-07	0.000242293	-8.01003e-10	0.000242294	3.87978	62125.6	0.205383	62125.8
25116.9	1.52269	0.519389	1.60884	-18.8345	8.49352	3.87977	0.0178428	12.2	1.27152	1	9	0.0052034	0.00323426	0	0.000198362	-8.92661e-05	1.0898e-05	-1.54059	0.00336955	0.00336833	9.05905e-05	-18.7989	1.61205	1.52606	0.51948	0.588285	0.200664	0.621567	18.8345	1271.52	3727.71	3938.6	-71.1655	0.0000000E+000	0.0000000E+000	0.0000000E+000	71.1655	0.0000000E+000	0.0000000E+000	0.0000000E+000	-71.1655	0.0000000E+000	0.0000000E+000	0.0000000E+000	-18.8345	0.0000000E+000	0.0000000E+000	0.0000000E+000	18.8345	2.9317	71.1655	5.87455e-06	6.9226e-05	-1.59276e-09	6.92276e-05	3.87986	217442	5.00291	217447
15847.7	1.66336	0.508467	1.73934	-16.9976	9.13553	3.87976	0.0551401	19.7511	1.6879	1	9	0.00495729	0.00285009	0	0.000210534	-0.000223036	4.92484e-06	43.225	0.00172796	0.00125911	-0.00118342	-16.9483	1.7402	1.66462	0.507284	0.549814	0.16807	0.574929	16.9976	1687.9	5521.67	5773.89	-73.0024	0.0000000E+000	0.0000000E+000	0.0000000E+000	73.0024	0.0000000E+000	0.0000000E+000	0.0000000E+000	-73.0024	0.0000000E+000	0.0000000E+000	0.0000000E+000	-16.9976	0.0000000E+000	0.0000000E+000	0.0000000E+000	16.9976	3.27133	73.0024	8.6663e-06	0.00021393	-1.22982e-08	0.000213942	3.87998	70361.8	4.04489	70365.8
10002.2	1.79108	0.511254	1.86262	-15.9311	9.77755	3.87975	0.0496201	31.1234	2.34483	1	9	0.00462691	0.00248409	0	0.000219349	4.45036e-05	8.29249e-06	-35.9367	0.00333825	0.00270286	0.00195919	-15.9662	1.86576	1.79378	0.513214	0.516258	0.147363	0.536878	15.9311	2344.83	8214.68	8542.78	-74.0689	0.0000000E+000	0.0000000E+000	0.0000000E+000	74.0689	0.0000000E+000	0.0000000E+000	0.0000000E+000	-74.0689	0.0000000E+000	0.0000000E+000	0.0000000E+000	-15.9311	0.0000000E+000	0.0000000E+000	0.0000000E+000	15.9311	3.50331	74.0689	1.75496e-06	0.000192514	2.20827e-09	0.000192512	3.87971	78189.2	0.896887	78188.3
6309.38	1.91751	0.540395	1.9922	-15.739	10.4215	3.87975	0.0645017	46.679	3.43461	1	9	0.00473296	0.00237574	0	0.000233398	-0.000261256	6.4821e-06	13.581	0.00272845	0.00265216	-0.000640697	-15.7006	1.99458	1.92016	0.539754	0.483137	0.136158	0.501957	15.739	3434.61	12187.2	12661.9	-74.261	0.0000000E+000	0.0000000E+000	0.0000000E+000	74.261	0.0000000E+000	0.0000000E+000	0.0000000E+000	-74.261	0.0000000E+000	0.0000000E+000	0.0000000E+000	-15.739	0.0000000E+000	0.0000000E+000	0.0000000E+000	15.739	3.54835	74.261	6.58573e-06	0.00025025	-1.68514e-08	0.000250267	3.88001	60149.5	4.05037	60153.5
3983.6	2.06113	0.597606	2.14602	-16.169	10.9841	3.87959	-0.0288907	66.8543	5.18433	1	9	0.0046236	0.0021545	0	0.000234791	0.000216493	1.53712e-05	-43.9966	0.00713447	0.0051324	0.00495571	-16.2577	2.15233	2.06626	0.602562	0.447547	0.129762	0.465979	16.169	5184.33	17880.6	18617.1	-73.831	0.0000000E+000	0.0000000E+000	0.0000000E+000	73.831	0.0000000E+000	0.0000000E+000	0.0000000E+000	-73.831	0.0000000E+000	0.0000000E+000	0.0000000E+000	-16.169	0.0000000E+000	0.0000000E+000	0.0000000E+000	16.169	3.44898	73.831	2.50145e-07	-0.000112084	-6.25464e-09	-0.000112078	3.87937	134285	7.49352	134277
2510.8	2.21123	0.693061	2.3173	-17.4024	11.8088	3.8797	0.0959433	91.4611	8.18113	1	9	0.00454132	0.00195974	0	0.000244628	-0.000184816	1.20977e-05	-110.751	0.00617312	-0.00218716	0.00577268	-17.5548	2.31695	2.20905	0.698833	0.411784	0.129064	0.431536	17.4024	8181.13	26102.2	27354.2	-72.5976	0.0000000E+000	0.0000000E+000	0.0000000E+000	72.5976	0.0000000E+000	0.0000000E+000	0.0000000E+000	-72.5976	0.0000000E+000	0.0000000E+000	0.0000000E+000	-17.4024	0.0000000E+000	0.0000000E+000	0.0000000E+000	17.4024	3.19054	72.5976	1.12629e-05	0.000372232	-1.77318e-08	0.000372249	3.87989	40437.4	1.9263	40439.4
1585.51	2.40728	0.80294	2.53766	-18.446	12.7108	3.8797	0.089379	125.017	12.5161	1	9	0.00451365	0.00177867	0	0.000265751	8.27235e-05	6.82436e-06	-88.655	0.00383678	9.00564e-05	0.00383572	-18.5274	2.53896	2.40737	0.806776	0.373818	0.124686	0.394064	18.446	12516.1	37524.3	39556.6	-71.554	0.0000000E+000	0.0000000E+000	0.0000000E+000	71.554	0.0000000E+000	0.0000000E+000	0.0000000E+000	-71.554	0.0000000E+000	0.0000000E+000	0.0000000E+000	-18.446	0.0000000E+000	0.0000000E+000	0.0000000E+000	18.446	2.99808	71.554	1.09895e-05	0.000346763	7.39375e-09	0.000346756	3.87962	43407.3	0.925537	43406.3
1000.32	2.64306	0.951753	2.8092	-19.8037	13.8268	3.8797	0.0878871	167.169	19.1885	1	9	0.00500011	0.0017799	0	0.000288595	6.28372e-06	7.82325e-06	-57.215	0.00439532	0.00238002	0.00369518	-19.8581	2.81269	2.64544	0.955449	0.334921	0.120603	0.355973	19.8037	19188.5	53287.2	56636.8	-70.1963	0.0000000E+000	0.0000000E+000	0.0000000E+000	70.1963	0.0000000E+000	0.0000000E+000	0.0000000E+000	-70.1963	0.0000000E+000	0.0000000E+000	0.0000000E+000	-19.8037	0.0000000E+000	0.0000000E+000	0.0000000E+000	19.8037	2.77704	70.1963	1.1115e-05	0.000340976	5.52258e-10	0.000340975	3.87969	44144.2	0.0714976	44144.1
631.01	2.95693	1.11686	3.16083	-20.692	14.9736	3.87968	0.0355352	225.832	28.1956	1	10	0.00505552	0.00159943	0	0.000306989	4.45036e-05	5.47981e-06	-4.52084	0.0034261	0.00341544	0.000270051	-20.6747	3.16412	2.96035	1.11713	0.295965	0.111788	0.316373	20.692	28195.6	74649	79796.4	-69.308	0.0000000E+000	0.0000000E+000	0.0000000E+000	69.308	0.0000000E+000	0.0000000E+000	0.0000000E+000	-69.308	0.0000000E+000	0.0000000E+000	0.0000000E+000	-20.692	0.0000000E+000	0.0000000E+000	0.0000000E+000	20.692	2.64754	69.308	9.63571e-06	0.000137865	1.58144e-09	0.000137863	3.87964	109179	1.25238	109177
398.089	3.35507	1.27176	3.58802	-20.7595	15.8748	3.87968	0.0406082	314.366	39.4943	1	10	0.00501513	0.00139774	0	0.000318573	-0.000318586	1.42458e-05	23.8538	0.010192	0.00932141	-0.0041217	-20.6454	3.59528	3.36439	1.26763	0.260611	0.0987858	0.278705	20.7595	39494.3	104192	111426	-69.2405	0.0000000E+000	0.0000000E+000	0.0000000E+000	69.2405	0.0000000E+000	0.0000000E+000	0.0000000E+000	-69.2405	0.0000000E+000	0.0000000E+000	0.0000000E+000	-20.7595	0.0000000E+000	0.0000000E+000	0.0000000E+000	20.7595	2.63814	69.2405	5.10192e-06	0.000157547	-1.29372e-08	0.00015756	3.87999	95539.2	7.84535	95547.1
251.044	3.83972	1.33463	4.06506	-19.1667	16.773	3.87967	0.0444354	475.017	51.2031	1	10	0.00499639	0.00122911	0	0.000329957	4.45036e-05	1.02566e-05	-1.13901	0.00834475	0.0083431	0.000165878	-19.1303	4.07299	3.84806	1.33479	0.232363	0.0807657	0.245999	19.1667	51203.1	147311	155956	-70.8333	0.0000000E+000	0.0000000E+000	0.0000000E+000	70.8333	0.0000000E+000	0.0000000E+000	0.0000000E+000	-70.8333	0.0000000E+000	0.0000000E+000	0.0000000E+000	-19.1667	0.0000000E+000	0.0000000E+000	0.0000000E+000	19.1667	2.877	70.8333	6.27818e-06	0.000172395	1.97753e-09	0.000172393	3.87963	87310.5	1.00154	87309.4
158.428	4.36134	1.28821	4.54762	-16.4556	17.6779	3.87968	0.0528208	779.828	62.5759	1	10	0.00499991	0.00109946	0	0.000344976	-0.000165706	5.67843e-06	-18.3966	0.00516475	0.00490081	0.00162996	-16.4578	4.55278	4.36625	1.28984	0.210888	0.0622903	0.219895	16.4556	62575.9	211855	220904	-73.5444	0.0000000E+000	0.0000000E+000	0.0000000E+000	73.5444	0.0000000E+000	0.0000000E+000	0.0000000E+000	-73.5444	0.0000000E+000	0.0000000E+000	0.0000000E+000	-16.4556	0.0000000E+000	0.0000000E+000	0.0000000E+000	16.4556	3.38557	73.5444	6.89803e-06	0.000204928	-8.75272e-09	0.000204936	3.87985	73449.9	3.13713	73453
100.032	4.81565	1.0702	4.93314	-12.5295	18.5769	3.87969	0.0385305	1486.67	69.9683	1	10	0.00499477	0.00101249	0	0.000355573	-0.000242146	8.18874e-06	-46.0254	0.0080877	0.00561561	0.00582029	-12.5812	4.93988	4.82127	1.07602	0.197883	0.0439764	0.202711	12.5295	69968.3	314840	322521	-77.4705	0.0000000E+000	0.0000000E+000	0.0000000E+000	77.4705	0.0000000E+000	0.0000000E+000	0.0000000E+000	-77.4705	0.0000000E+000	0.0000000E+000	0.0000000E+000	-12.5295	0.0000000E+000	0.0000000E+000	0.0000000E+000	12.5295	4.49976	77.4705	5.65746e-06	0.000149486	-9.32999e-09	0.000149496	3.87993	100691	6.28452	100698
63.0823	5.11713	0.895292	5.19486	-9.92402	19.4939	3.87969	0.0577521	2818.04	83.7009	1	10	0.00498317	0.000959251	0	0.000369187	0.000216493	1.01499e-05	32.0583	0.0105811	0.00896756	-0.00561626	-9.84607	5.20273	5.1261	0.889676	0.189618	0.0331755	0.192498	9.92402	83700.9	478400	485667	-80.076	0.0000000E+000	0.0000000E+000	0.0000000E+000	80.076	0.0000000E+000	0.0000000E+000	0.0000000E+000	-80.076	0.0000000E+000	0.0000000E+000	0.0000000E+000	-9.92402	0.0000000E+000	0.0000000E+000	0.0000000E+000	9.92402	5.71559	80.076	6.86585e-06	0.00022406	1.25029e-08	0.000224048	3.87947	67178.3	3.74866	67174.5
39.8089	5.32849	0.741915	5.37989	-7.92664	20.3948	3.87968	0.0511086	5388.72	102.482	1	10	0.00497789	0.000925277	0	0.000375661	-0.000108376	1.47722e-05	22.7371	0.0159651	0.0147244	-0.00617056	-7.84015	5.39363	5.34321	0.735744	0.184101	0.0256334	0.185877	7.92664	102482	736032	743132	-82.0734	0.0000000E+000	0.0000000E+000	0.0000000E+000	82.0734	0.0000000E+000	0.0000000E+000	0.0000000E+000	-82.0734	0.0000000E+000	0.0000000E+000	0.0000000E+000	-7.92664	0.0000000E+000	0.0000000E+000	0.0000000E+000	7.92664	7.18208	82.0734	2.93398e-06	0.000198285	-5.53895e-09	0.000198291	3.87979	75910.5	2.1205	75912.6
25.1044	5.51221	0.449502	5.53051	-4.66196	21.2741	3.87968	0.0489489	14103.9	93.1689	1	10	0.00498145	0.000900722	0	0.000386517	-0.000280366	6.87263e-06	-10.605	0.00763014	0.00749981	0.00140423	-4.67013	5.5381	5.51971	0.450906	0.180217	0.0146961	0.180815	4.66196	93168.8	1.14252e+06	1.14632e+06	-85.338	0.0000000E+000	0.0000000E+000	0.0000000E+000	85.338	0.0000000E+000	0.0000000E+000	0.0000000E+000	-85.338	0.0000000E+000	0.0000000E+000	0.0000000E+000	-4.66196	0.0000000E+000	0.0000000E+000	0.0000000E+000	4.66196	12.2629	85.338	5.54686e-06	0.000189906	-1.37236e-08	0.00018992	3.87996	79259.9	5.72772	79265.6
15.8576	5.37852	0.406015	5.39383	-4.31696	22.1521	3.87967	0.0279853	24719.6	140.065	1	10	0.00498946	0.000925032	0	0.000391434	0.000101833	1.79042e-05	100.49	0.0193552	-0.00352399	-0.0190317	-4.11801	5.38891	5.375	0.386983	0.184871	0.0139556	0.185397	4.31696	140065	1.85546e+06	1.86074e+06	-85.683	0.0000000E+000	0.0000000E+000	0.0000000E+000	85.683	0.0000000E+000	0.0000000E+000	0.0000000E+000	-85.683	0.0000000E+000	0.0000000E+000	0.0000000E+000	-4.31696	0.0000000E+000	0.0000000E+000	0.0000000E+000	4.31696	13.2471	85.683	7.38385e-07	0.000108574	2.84984e-09	0.000108571	3.87957	138633	3.63882	138629
10.0032	5.57151	0.308417	5.58004	-3.16843	23.1338	3.87967	0.0425479	51587.3	157.596	1	10	0.00497882	0.000892255	0	0.000406317	0.000120943	6.22929e-06	-77.8583	0.00698151	0.00146842	0.00682534	-3.23755	5.58189	5.57298	0.315242	0.178936	0.0099052	0.17921	3.16843	157596	2.84695e+06	2.8513e+06	-86.8316	0.0000000E+000	0.0000000E+000	0.0000000E+000	86.8316	0.0000000E+000	0.0000000E+000	0.0000000E+000	-86.8316	0.0000000E+000	0.0000000E+000	0.0000000E+000	-3.16843	0.0000000E+000	0.0000000E+000	0.0000000E+000	3.16843	18.0649	86.8316	5.72174e-06	0.000165072	5.14589e-09	0.000165067	3.87955	91183.7	2.84253	91180.8
6.31058	5.65501	0.198861	5.65851	-2.014	24.0563	3.87968	0.0332411	126824	156.638	1	10	0.00498515	0.000881	0	0.000410728	-0.000165706	5.02653e-06	-26.0282	0.00570548	0.00512682	0.00250364	-2.03749	5.66372	5.66014	0.201365	0.176616	0.00621077	0.176725	2.014	156638	4.45431e+06	4.45706e+06	-87.986	0.0000000E+000	0.0000000E+000	0.0000000E+000	87.986	0.0000000E+000	0.0000000E+000	0.0000000E+000	-87.986	0.0000000E+000	0.0000000E+000	0.0000000E+000	-2.014	0.0000000E+000	0.0000000E+000	0.0000000E+000	2.014	28.437	87.986	-2.13254e-06	0.000128965	-5.50824e-09	0.00012897	3.87985	116713	4.98497	116718
3.97785	5.63252	0.180564	5.63541	-1.83612	25.0634	3.87971	0.0466492	221585	227.484	1	10	0.00498236	0.000884117	0	0.000436467	0.000140053	5.57328e-06	-8.05203	0.00630378	0.00624164	0.000882985	-1.84305	5.64168	5.63876	0.181447	0.177358	0.00568563	0.177449	1.83612	227484	7.09615e+06	7.0998e+06	-88.1639	0.0000000E+000	0.0000000E+000	0.0000000E+000	88.1639	0.0000000E+000	0.0000000E+000	0.0000000E+000	-88.1639	0.0000000E+000	0.0000000E+000	0.0000000E+000	-1.83612	0.0000000E+000	0.0000000E+000	0.0000000E+000	1.83612	31.1941	88.1639	1.17818e-05	0.000180985	6.53338e-09	0.000180979	3.87957	83167.8	3.00227	83164.8
2.51367	5.65669	0.226287	5.66121	-2.29081	27.0649	3.87972	0.0543332	279802	447.046	1	11	0.00498352	0.000880293	0	0.00044175	4.45036e-05	5.76728e-06	9.63815	0.00655155	0.00645907	-0.00109689	-2.27712	5.66762	5.66315	0.225191	0.176499	0.0070606	0.176641	2.29081	447046	1.11752e+07	1.11841e+07	-87.7092	0.0000000E+000	0.0000000E+000	0.0000000E+000	87.7092	0.0000000E+000	0.0000000E+000	0.0000000E+000	-87.7092	0.0000000E+000	0.0000000E+000	0.0000000E+000	-2.29081	0.0000000E+000	0.0000000E+000	0.0000000E+000	2.29081	24.9978	87.7092	6.06284e-06	0.000210798	2.41802e-09	0.000210795	3.87968	71406.1	0.819087	71405.3
1.58469	5.82551	0.167285	5.82791	-1.64485	29.5005	3.87973	0.0549706	600370	494.663	1	11	0.00498698	0.000855706	0	0.000505326	-3.19362e-05	3.83352e-06	-12.6191	0.00447995	0.00437173	0.000978727	-1.65323	5.83231	5.82988	0.168264	0.171517	0.00492529	0.171588	1.64485	494662	1.7226e+07	1.72331e+07	-88.3551	0.0000000E+000	0.0000000E+000	0.0000000E+000	88.3551	0.0000000E+000	0.0000000E+000	0.0000000E+000	-88.3551	0.0000000E+000	0.0000000E+000	0.0000000E+000	-1.64485	0.0000000E+000	0.0000000E+000	0.0000000E+000	1.64485	34.8238	88.3551	3.76514e-05	0.000213271	-1.75555e-09	0.000213273	3.87976	70578.2	0.580969	70578.8
1.00469	5.81834	0.254359	5.8239	-2.50319	240.319	3.87969	0.0189215	622788	1187.97	1	11	0.00506432	0.000869575	0	-0.000898986	-0.000146596	5.06966e-07	-17.4663	0.000583004	0.000556124	0.000174985	-2.50467	5.82446	5.8189	0.254534	0.171542	0.00749926	0.171706	2.50319	1.18797e+06	2.71743e+07	2.72002e+07	-87.4968	0.0000000E+000	0.0000000E+000	0.0000000E+000	87.4968	0.0000000E+000	0.0000000E+000	0.0000000E+000	-87.4968	0.0000000E+000	0.0000000E+000	0.0000000E+000	-2.50319	0.0000000E+000	0.0000000E+000	0.0000000E+000	2.50319	22.8746	87.4968	-0.0014381	7.34097e-05	-2.77382e-09	7.34125e-05	3.87984	205042	7.74758	205049
0.632957	5.88277	0.314261	5.89116	-3.05787	240.32	3.87969	0.0189215	800120	2276.85	1	11	0.00507745	0.000861876	0	-0.000898986	-0.000146596	5.13361e-07	-12.6742	0.000595632	0.000581119	0.000130686	-3.05883	5.89175	5.88335	0.314392	0.169504	0.00905501	0.169746	3.05787	2.27685e+06	4.26212e+07	4.2682e+07	-86.9421	0.0000000E+000	0.0000000E+000	0.0000000E+000	86.9421	0.0000000E+000	0.0000000E+000	0.0000000E+000	-86.9421	0.0000000E+000	0.0000000E+000	0.0000000E+000	-3.05787	0.0000000E+000	0.0000000E+000	0.0000000E+000	3.05787	18.7194	86.9421	0.000000000000000E+000	7.34097e-05	-2.77382e-09	7.34125e-05	3.87984	205042	7.74758	205049
0.401878	5.93841	0.391392	5.95129	-3.77082	240.32	3.87969	0.0189215	1.01185e+06	4376.38	1	11	0.00509112	0.000855465	0	-0.000898986	-0.000146596	5.18441e-07	1.1594	0.000606034	0.00060591	-1.22625e-05	-3.77032	5.9519	5.93901	0.391379	0.167667	0.0110507	0.168031	3.77082	4.37639e+06	6.64009e+07	6.6545e+07	-86.2292	0.0000000E+000	0.0000000E+000	0.0000000E+000	86.2292	0.0000000E+000	0.0000000E+000	0.0000000E+000	-86.2292	0.0000000E+000	0.0000000E+000	0.0000000E+000	-3.77082	0.0000000E+000	0.0000000E+000	0.0000000E+000	3.77082	15.1726	86.2292	0.000000000000000E+000	7.34097e-05	-2.77382e-09	7.34125e-05	3.87984	205042	7.74758	205049
0.251173	6.04334	0.513232	6.0651	-4.8542	240.321	3.87969	0.0189215	1.23462e+06	8840.66	1	11	0.00509164	0.000839499	0	-0.000898986	-0.000146596	4.9743e-07	34.0942	0.000592532	0.000490686	-0.000332147	-4.85069	6.06556	6.04383	0.512899	0.164286	0.0139521	0.164878	4.8542	8.84065e+06	1.04099e+08	1.04474e+08	-85.1458	0.0000000E+000	0.0000000E+000	0.0000000E+000	85.1458	0.0000000E+000	0.0000000E+000	0.0000000E+000	-85.1458	0.0000000E+000	0.0000000E+000	0.0000000E+000	-4.8542	0.0000000E+000	0.0000000E+000	0.0000000E+000	4.8542	11.7751	85.1458	0.000000000000000E+000	7.34097e-05	-2.77382e-09	7.34125e-05	3.87984	205042	7.74758	205049
0.160751	6.16658	0.59045	6.19479	-5.4694	240.321	3.87969	0.0189215	1.67681e+06	15233.4	1	11	0.00508644	0.000821084	0	-0.000898986	-0.000146596	5.49551e-07	4.92997	0.000669299	0.000666823	-5.75183e-05	-5.46828	6.19545	6.16725	0.590393	0.160691	0.0153862	0.161426	5.4694	1.52334e+07	1.59096e+08	1.59823e+08	-84.5306	0.0000000E+000	0.0000000E+000	0.0000000E+000	84.5306	0.0000000E+000	0.0000000E+000	0.0000000E+000	-84.5306	0.0000000E+000	0.0000000E+000	0.0000000E+000	-5.4694	0.0000000E+000	0.0000000E+000	0.0000000E+000	5.4694	10.4439	84.5306	0.000000000000000E+000	7.34097e-05	-2.77382e-09	7.34125e-05	3.87984	205042	7.74758	205049
0.100469	6.28364	0.817631	6.33662	-7.4137	240.322	3.87969	0.0189215	1.93744e+06	32257.4	1	11	0.00508843	0.000803019	0	-0.000898986	-0.000146596	7.22635e-07	-38.902	0.000899898	0.000700319	0.000565127	-7.41795	6.33738	6.28434	0.818196	0.156494	0.020363	0.157813	7.4137	3.22573e+07	2.47904e+08	2.49994e+08	-82.5863	0.0000000E+000	0.0000000E+000	0.0000000E+000	82.5863	0.0000000E+000	0.0000000E+000	0.0000000E+000	-82.5863	0.0000000E+000	0.0000000E+000	0.0000000E+000	-7.4137	0.0000000E+000	0.0000000E+000	0.0000000E+000	7.4137	7.68519	82.5863	0.000000000000000E+000	7.34097e-05	-2.77382e-09	7.34125e-05	3.87984	205042	7.74758	205049
0.0602816	6.53398	1.02482	6.61386	-8.91393	240.323	3.87969	0.0189215	2.57624e+06	61854.8	1	11	0.00508318	0.000768565	0	-0.000898986	-0.000146596	9.55084e-07	-34.269	0.00124268	0.00102696	0.00069973	-8.91854	6.61498	6.53501	1.02552	0.149371	0.0234282	0.151198	8.91393	6.18548e+07	3.94369e+08	3.9919e+08	-81.0861	0.0000000E+000	0.0000000E+000	0.0000000E+000	81.0861	0.0000000E+000	0.0000000E+000	0.0000000E+000	-81.0861	0.0000000E+000	0.0000000E+000	0.0000000E+000	-8.91393	0.0000000E+000	0.0000000E+000	0.0000000E+000	8.91393	6.37573	81.0861	0.000000000000000E+000	7.34097e-05	-2.77382e-09	7.34125e-05	3.87984	205042	7.74758	205049
0.0401878	6.80748	1.25671	6.92251	-10.4595	240.323	3.87969	0.0189215	3.15131e+06	103857	1	11	0.00508315	0.000734294	0	-0.000898986	-0.000146596	8.332e-07	85.8351	0.0011347	8.24101e-05	-0.0011317	-10.4501	6.92238	6.80756	1.25558	0.142056	0.0262246	0.144456	10.4595	1.03857e+08	5.62582e+08	5.72088e+08	-79.5405	0.0000000E+000	0.0000000E+000	0.0000000E+000	79.5405	0.0000000E+000	0.0000000E+000	0.0000000E+000	-79.5405	0.0000000E+000	0.0000000E+000	0.0000000E+000	-10.4595	0.0000000E+000	0.0000000E+000	0.0000000E+000	10.4595	5.4169	79.5405	0.000000000000000E+000	7.34097e-05	-2.77382e-09	7.34125e-05	3.87984	205042	7.74758	205049
0.0200939	7.56142	1.86282	7.7875	-13.8397	240.324	3.87969	0.0189215	4.25193e+06	243293	1	11	0.0050838	0.000652815	0	-0.000898986	-0.000146596	7.39328e-07	-57.8206	0.00113252	0.000603151	0.000958551	-13.8455	7.78832	7.56203	1.86378	0.124683	0.0307167	0.128411	13.8397	2.43293e+08	9.8756e+08	1.01709e+09	-76.1603	0.0000000E+000	0.0000000E+000	0.0000000E+000	76.1603	0.0000000E+000	0.0000000E+000	0.0000000E+000	-76.1603	0.0000000E+000	0.0000000E+000	0.0000000E+000	-13.8397	0.0000000E+000	0.0000000E+000	0.0000000E+000	13.8397	4.05913	76.1603	0.000000000000000E+000	7.34097e-05	-2.77382e-09	7.34125e-05	3.87984	205042	7.74758	205049
0.00796479	8.47441	2.2969	8.78017	-15.1651	20329.2	3.87969	0.00124168	8.69968e+06	595364	1	11	0.00507559	0.000578075	0	-0.0537015	-0.000223036	4.01383e-07	3.88401	0.000694344	0.000692749	-4.70327e-05	-15.1636	8.78082	8.4751	2.29686	0.109927	0.0297946	0.113893	15.1651	5.95364e+08	2.19659e+09	2.27585e+09	-74.8349	0.0000000E+000	0.0000000E+000	0.0000000E+000	74.8349	0.0000000E+000	0.0000000E+000	0.0000000E+000	-74.8349	0.0000000E+000	0.0000000E+000	0.0000000E+000	-15.1651	0.0000000E+000	0.0000000E+000	0.0000000E+000	15.1651	3.68949	74.8349	-0.0528025	4.81733e-06	-2.76939e-10	4.81761e-06	3.87992	3.12455e+06	179.624	3.12473e+06
0.00497799	9.17719	2.37868	9.48046	-14.531	20329.2	3.87969	0.00124168	1.34409e+07	846144	1	11	0.00508385	0.000536246	0	-0.0537015	-0.000223036	5.19923e-07	-30.5511	0.000969561	0.000834963	0.000492834	-14.5326	9.48139	9.17803	2.37917	0.102106	0.0264654	0.10548	14.531	8.46143e+08	3.26451e+09	3.37238e+09	-75.469	0.0000000E+000	0.0000000E+000	0.0000000E+000	75.469	0.0000000E+000	0.0000000E+000	0.0000000E+000	-75.469	0.0000000E+000	0.0000000E+000	0.0000000E+000	-14.531	0.0000000E+000	0.0000000E+000	0.0000000E+000	14.531	3.8581	75.469	0.000000000000000E+000	4.81733e-06	-2.76939e-10	4.81761e-06	3.87992	3.12455e+06	179.624	3.12473e+06
0.00318591	9.67922	3.19737	10.1936	-18.2801	20329.2	3.87969	0.00124168	1.5624e+07	1.53716e+06	1	11	0.00508699	0.000499035	0	-0.0537015	-0.000223036	5.19532e-07	-42.9237	0.00104107	0.000762337	0.000708994	-18.2826	10.1946	9.67998	3.19808	0.0931496	0.0307705	0.0981003	18.2801	1.53716e+09	4.65337e+09	4.90068e+09	-71.7199	0.0000000E+000	0.0000000E+000	0.0000000E+000	71.7199	0.0000000E+000	0.0000000E+000	0.0000000E+000	-71.7199	0.0000000E+000	0.0000000E+000	0.0000000E+000	-18.2801	0.0000000E+000	0.0000000E+000	0.0000000E+000	18.2801	3.02724	71.7199	0.000000000000000E+000	4.81733e-06	-2.76939e-10	4.81761e-06	3.87992	3.12455e+06	179.624	3.12473e+06
0.0019912	10.0744	3.87372	10.7935	-21.0323	20329.2	3.87969	0.00124168	2.06338e+07	2.65774e+06	1	11	0.00508959	0.000471545	0	-0.0537015	-0.000223036	1.06871e-06	-7.73458	0.00226639	0.00224577	0.000305021	-21.0296	10.7957	10.0766	3.87402	0.0864763	0.0332512	0.0926488	21.0323	2.65774e+09	6.91199e+09	7.40535e+09	-68.9677	0.0000000E+000	0.0000000E+000	0.0000000E+000	68.9677	0.0000000E+000	0.0000000E+000	0.0000000E+000	-68.9677	0.0000000E+000	0.0000000E+000	0.0000000E+000	-21.0323	0.0000000E+000	0.0000000E+000	0.0000000E+000	21.0323	2.6007	68.9677	0.000000000000000E+000	4.81733e-06	-2.76939e-10	4.81761e-06	3.87992	3.12455e+06	179.624	3.12473e+06
0.00129428	9.7567	5.06925	10.995	-27.4549	20329.2	3.87969	0.00124168	2.42577e+07	5.15637e+06	1	11	0.00508915	0.00046286	0	-0.0537015	-0.000223036	1.37817e-06	61.83	0.00297752	0.00140566	-0.00262483	-27.4393	10.9951	9.75811	5.06663	0.0807069	0.0419326	0.0909502	27.4549	5.15637e+09	9.92438e+09	1.1184e+10	-62.5451	0.0000000E+000	0.0000000E+000	0.0000000E+000	62.5451	0.0000000E+000	0.0000000E+000	0.0000000E+000	-62.5451	0.0000000E+000	0.0000000E+000	0.0000000E+000	-27.4549	0.0000000E+000	0.0000000E+000	0.0000000E+000	27.4549	1.92468	62.5452	0.000000000000000E+000	4.81733e-06	-2.76939e-10	4.81761e-06	3.87992	3.12455e+06	179.624	3.12473e+06
0.000796479	10.8112	7.29451	13.0419	-34.0082	20329.2	3.87969	0.00124168	2.73937e+07	8.56955e+06	1	11	0.00509106	0.000390361	0	-0.0537015	-0.000223036	2.0352e-06	34.8024	0.00521364	0.00428105	-0.00297567	-33.9869	13.0438	10.8155	7.29153	0.0635609	0.0428857	0.0766758	34.0082	8.56955e+09	1.2701e+10	1.53216e+10	-55.9918	0.0000000E+000	0.0000000E+000	0.0000000E+000	55.9918	0.0000000E+000	0.0000000E+000	0.0000000E+000	-55.9918	0.0000000E+000	0.0000000E+000	0.0000000E+000	-34.0082	0.0000000E+000	0.0000000E+000	0.0000000E+000	34.0082	1.4821	55.9918	0.000000000000000E+000	4.81733e-06	-2.76939e-10	4.81761e-06	3.87992	3.12455e+06	179.624	3.12473e+06
0.000497799	10.5577	10.4871	14.881	-44.8079	20329.2	3.87969	0.00124168	3.04867e+07	1.51411e+07	1	11	0.00509075	0.000342098	0	-0.0537015	-0.000223036	2.79367e-06	-33.2558	0.00816628	0.00682889	0.00447821	-44.8016	14.889	10.5645	10.4916	0.0476765	0.0473579	0.0671998	44.8079	1.51411e+10	1.5243e+10	2.14849e+10	-45.1921	0.0000000E+000	0.0000000E+000	0.0000000E+000	45.1921	0.0000000E+000	0.0000000E+000	0.0000000E+000	-45.1921	0.0000000E+000	0.0000000E+000	0.0000000E+000	-44.8079	0.0000000E+000	0.0000000E+000	0.0000000E+000	44.8079	1.00673	45.1921	0.000000000000000E+000	4.81733e-06	-2.76939e-10	4.81761e-06	3.87992	3.12455e+06	179.624	3.12473e+06
0.000298679	9.97957	16.3227	19.1317	-58.5588	20329.2	3.87969	0.00124168	3.26454e+07	2.37629e+07	1	11	0.00509382	0.00026625	0	-0.0537015	-0.000223036	3.15208e-06	-81.5891	0.0118388	0.00173166	0.0117115	-58.5726	19.1426	9.98131	16.3344	0.0272648	0.0445948	0.0522692	58.5588	2.37629e+10	1.45284e+10	2.78522e+10	-31.4412	0.0000000E+000	0.0000000E+000	0.0000000E+000	31.4412	0.0000000E+000	0.0000000E+000	0.0000000E+000	-31.4412	0.0000000E+000	0.0000000E+000	0.0000000E+000	-58.5588	0.0000000E+000	0.0000000E+000	0.0000000E+000	58.5588	0.611391	31.4412	0.000000000000000E+000	4.81733e-06	-2.76939e-10	4.81761e-06	3.87992	3.12455e+06	179.624	3.12473e+06
9.95598e-05	9.29518	69.6316	70.2493	-82.3965	20329.2	3.87969	0.00124168	2.29578e+07	2.25558e+07	1	11	0.00508816	7.24301e-05	0	-0.0537015	-0.000223036	2.25133e-06	-27.8565	0.0310828	0.0274809	0.0145237	-82.3758	70.2674	9.32266	69.6462	0.00188354	0.0141099	0.014235	82.3965	2.25558e+10	3.01099e+09	2.27559e+10	-7.60351	0.0000000E+000	0.0000000E+000	0.0000000E+000	7.60351	0.0000000E+000	0.0000000E+000	0.0000000E+000	-7.60351	0.0000000E+000	0.0000000E+000	0.0000000E+000	-82.3965	0.0000000E+000	0.0000000E+000	0.0000000E+000	82.3965	0.133491	7.60352	0.000000000000000E+000	4.81733e-06	-2.76939e-10	4.81761e-06	3.87992	3.12455e+06	179.624	3.12473e+06